nCond,key_resp_ic.keys,key_resp_ic.rt,participant,date,expName,psychopyVersion,OS,frameRate,key_resp.keys,key_resp.rt,key_resp_Practice.keys,key_resp_Practice.rt,key_resp_2.keys,key_resp_2.corr,key_resp_2.rt,trialsPractice.thisRepN,trialsPractice.thisTrialN,trialsPractice.thisN,trialsPractice.thisIndex,trialsPractice.ran,targPres,distPres,distCol,targPos,tPosX,tPosY,distPos,dPosX,dPosY,linOr1,linOr2,linOr3,linOr4,linOr5,linOr6,linOr7,linOr8,corrAns,arElPres1,arElPres2,arElPres3,arElPres4,arElPres5,arElPres6,arElPres7,arElPres8,arElPosX1,arElPosY1,arElPosX2,arElPosY2,arElPosX3,arElPosY3,arElPosX4,arElPosY4,arElPosX5,arElPosY5,arElPosX6,arElPosY6,arElPosX7,arElPosY7,arElPosX8,arElPosY8,arLineDur,shape,dispDur,arElCol,key_resp_4.keys,key_resp_4.rt,trial.thisRepN,trial.thisTrialN,trial.thisN,trial.thisIndex,trial.ran,key_resp_3.keys,key_resp_3.rt,blocks.thisRepN,blocks.thisTrialN,blocks.thisN,blocks.thisIndex,blocks.ran,trials.thisRepN,trials.thisTrialN,trials.thisN,trials.thisIndex,trials.ran
3,y,1.4331,999999999,2023-09-01_16h41.38.572,addsingdop,2022.2.5,MacIntel,120.0048002,,,,,,,,,,,,,,,,,,,,,,,,,,,,,,,,,,,,,,,,,,,,,,,,,,,,,,,,,,,,,,,,,,,,,,,,,,,,,
,,,999999999,2023-09-01_16h41.38.572,addsingdop,2022.2.5,MacIntel,120.0048002,space,3.4491,space,2.6242,down,0,2.3225,0,0,0,0,1,2,2,green,8,-0.141421356,-0.141421356,4,0.141421356,0.141421356,90,0,0,90,90,0,0,0,right,2,2,2,0,2,2,2,0,-0.2,0,-0.141421356,0.141421356,0,0.2,0.141421356,0.141421356,0.2,0,0.141421356,-0.141421356,0,-0.2,-0.141421356,-0.141421356,2,0,,red,,,,,,,,,,,,,,,,,,,
,,,999999999,2023-09-01_16h41.38.572,addsingdop,2022.2.5,MacIntel,120.0048002,,,,,right,1,0.683,0,1,1,6,1,2,2,green,2,-0.141421356,0.141421356,6,0.141421356,-0.141421356,0,0,0,90,90,0,90,0,right,2,0,2,2,2,0,2,2,-0.2,0,-0.141421356,0.141421356,0,0.2,0.141421356,0.141421356,0.2,0,0.141421356,-0.141421356,0,-0.2,-0.141421356,-0.141421356,2,0,,red,,,,,,,,,,,,,,,,,,,
,,,999999999,2023-09-01_16h41.38.572,addsingdop,2022.2.5,MacIntel,120.0048002,,,,,down,1,1.4803,0,2,2,2,1,2,2,green,5,0.2,0,8,-0.141421356,-0.141421356,0,0,90,90,90,90,0,90,down,2,2,2,2,0,2,2,0,-0.2,0,-0.141421356,0.141421356,0,0.2,0.141421356,0.141421356,0.2,0,0.141421356,-0.141421356,0,-0.2,-0.141421356,-0.141421356,2,0,,red,,,,,,,,,,,,,,,,,,,
,,,999999999,2023-09-01_16h41.38.572,addsingdop,2022.2.5,MacIntel,120.0048002,,,,,right,1,0.5847,0,3,3,5,1,2,2,green,5,0.2,0,2,-0.141421356,0.141421356,90,0,0,90,0,90,0,0,right,2,0,2,2,0,2,2,2,-0.2,0,-0.141421356,0.141421356,0,0.2,0.141421356,0.141421356,0.2,0,0.141421356,-0.141421356,0,-0.2,-0.141421356,-0.141421356,2,1,,red,,,,,,,,,,,,,,,,,,,
,,,999999999,2023-09-01_16h41.38.572,addsingdop,2022.2.5,MacIntel,120.0048002,,,,,right,1,0.9873,0,4,4,8,1,2,FALSE,grey,7,0,-0.2,3,0,0.2,0,90,0,0,0,90,0,0,right,2,2,2,2,2,2,0,2,-0.2,0,-0.141421356,0.141421356,0,0.2,0.141421356,0.141421356,0.2,0,0.141421356,-0.141421356,0,-0.2,-0.141421356,-0.141421356,2,0,,green,,,,,,,,,,,,,,,,,,,
,,,999999999,2023-09-01_16h41.38.572,addsingdop,2022.2.5,MacIntel,120.0048002,,,,,down,1,0.5407,0,5,5,7,1,2,2,red,8,-0.141421356,-0.141421356,6,0.141421356,-0.141421356,0,90,90,0,90,0,90,90,down,2,2,2,2,2,0,2,0,-0.2,0,-0.141421356,0.141421356,0,0.2,0.141421356,0.141421356,0.2,0,0.141421356,-0.141421356,0,-0.2,-0.141421356,-0.141421356,2,0,,green,,,,,,,,,,,,,,,,,,,
,,,999999999,2023-09-01_16h41.38.572,addsingdop,2022.2.5,MacIntel,120.0048002,,,,,right,1,0.4669,0,6,6,1,1,2,2,red,3,0,0.2,4,0.141421356,0.141421356,0,90,0,90,0,90,90,90,right,2,2,0,0,2,2,2,2,-0.2,0,-0.141421356,0.141421356,0,0.2,0.141421356,0.141421356,0.2,0,0.141421356,-0.141421356,0,-0.2,-0.141421356,-0.141421356,2,1,,green,,,,,,,,,,,,,,,,,,,
,,,999999999,2023-09-01_16h41.38.572,addsingdop,2022.2.5,MacIntel,120.0048002,,,,,right,1,0.7679,0,7,7,4,1,2,2,green,8,-0.141421356,-0.141421356,2,-0.141421356,0.141421356,90,90,0,0,0,90,0,0,right,2,0,2,2,2,2,2,0,-0.2,0,-0.141421356,0.141421356,0,0.2,0.141421356,0.141421356,0.2,0,0.141421356,-0.141421356,0,-0.2,-0.141421356,-0.141421356,2,1,,red,,,,,,,,,,,,,,,,,,,
,,,999999999,2023-09-01_16h41.38.572,addsingdop,2022.2.5,MacIntel,120.0048002,,,,,right,1,0.55,0,8,8,3,1,2,2,green,1,-0.2,0,8,-0.141421356,-0.141421356,0,0,0,90,0,0,90,0,right,0,2,2,2,2,2,2,0,-0.2,0,-0.141421356,0.141421356,0,0.2,0.141421356,0.141421356,0.2,0,0.141421356,-0.141421356,0,-0.2,-0.141421356,-0.141421356,2,0,,red,,,,,,,,,,,,,,,,,,,
,,,999999999,2023-09-01_16h41.38.572,addsingdop,2022.2.5,MacIntel,120.0048002,,,,,right,1,1.4481,,,,,,2,FALSE,grey,2,-0.141421356,0.141421356,3,0,0.2,90,0,0,0,0,0,90,0,right,2,0,2,2,2,2,2,2,-0.2,0,-0.141421356,0.141421356,0,0.2,0.141421356,0.141421356,0.2,0,0.141421356,-0.141421356,0,-0.2,-0.141421356,-0.141421356,2,0,,red,space,1.1905,0,0,0,185,1,,,,,,,,,,,,
,,,999999999,2023-09-01_16h41.38.572,addsingdop,2022.2.5,MacIntel,120.0048002,,,,,down,0,1.9443,,,,,,2,2,red,2,-0.141421356,0.141421356,4,0.141421356,0.141421356,0,0,0,90,0,0,90,90,right,2,0,2,0,2,2,2,2,-0.2,0,-0.141421356,0.141421356,0,0.2,0.141421356,0.141421356,0.2,0,0.141421356,-0.141421356,0,-0.2,-0.141421356,-0.141421356,2,0,,green,,,0,1,1,12,1,,,,,,,,,,,,
,,,999999999,2023-09-01_16h41.38.572,addsingdop,2022.2.5,MacIntel,120.0048002,,,,,down,1,0.8894,,,,,,2,FALSE,grey,7,0,-0.2,3,0,0.2,0,90,0,90,90,0,90,90,down,2,2,2,2,2,2,0,2,-0.2,0,-0.141421356,0.141421356,0,0.2,0.141421356,0.141421356,0.2,0,0.141421356,-0.141421356,0,-0.2,-0.141421356,-0.141421356,2,1,,red,,,0,2,2,150,1,,,,,,,,,,,,
,,,999999999,2023-09-01_16h41.38.572,addsingdop,2022.2.5,MacIntel,120.0048002,,,,,down,1,0.5463,,,,,,2,FALSE,grey,7,0,-0.2,3,0,0.2,90,0,0,0,0,0,90,90,down,2,2,2,2,2,2,0,2,-0.2,0,-0.141421356,0.141421356,0,0.2,0.141421356,0.141421356,0.2,0,0.141421356,-0.141421356,0,-0.2,-0.141421356,-0.141421356,2,1,,green,,,0,3,3,166,1,,,,,,,,,,,,
,,,999999999,2023-09-01_16h41.38.572,addsingdop,2022.2.5,MacIntel,120.0048002,,,,,down,1,0.5955,,,,,,2,FALSE,grey,5,0.2,0,3,0,0.2,90,90,90,0,90,0,0,0,down,2,2,2,2,0,2,2,2,-0.2,0,-0.141421356,0.141421356,0,0.2,0.141421356,0.141421356,0.2,0,0.141421356,-0.141421356,0,-0.2,-0.141421356,-0.141421356,2,1,,green,,,0,4,4,148,1,,,,,,,,,,,,
,,,999999999,2023-09-01_16h41.38.572,addsingdop,2022.2.5,MacIntel,120.0048002,,,,,down,1,0.6371,,,,,,2,FALSE,grey,1,-0.2,0,3,0,0.2,90,0,0,0,90,90,0,90,down,0,2,2,2,2,2,2,2,-0.2,0,-0.141421356,0.141421356,0,0.2,0.141421356,0.141421356,0.2,0,0.141421356,-0.141421356,0,-0.2,-0.141421356,-0.141421356,2,0,,red,,,0,5,5,144,1,,,,,,,,,,,,
,,,999999999,2023-09-01_16h41.38.572,addsingdop,2022.2.5,MacIntel,120.0048002,,,,,down,1,0.6299,,,,,,2,FALSE,grey,3,0,0.2,3,0,0.2,90,0,90,90,0,90,0,90,down,2,2,0,2,2,2,2,2,-0.2,0,-0.141421356,0.141421356,0,0.2,0.141421356,0.141421356,0.2,0,0.141421356,-0.141421356,0,-0.2,-0.141421356,-0.141421356,2,1,,green,,,0,6,6,194,1,,,,,,,,,,,,
,,,999999999,2023-09-01_16h41.38.572,addsingdop,2022.2.5,MacIntel,120.0048002,,,,,down,1,1.1459,,,,,,2,2,red,5,0.2,0,4,0.141421356,0.141421356,90,90,0,90,90,0,0,0,down,2,2,2,0,0,2,2,2,-0.2,0,-0.141421356,0.141421356,0,0.2,0.141421356,0.141421356,0.2,0,0.141421356,-0.141421356,0,-0.2,-0.141421356,-0.141421356,2,0,,green,,,0,7,7,107,1,,,,,,,,,,,,
,,,999999999,2023-09-01_16h41.38.572,addsingdop,2022.2.5,MacIntel,120.0048002,,,,,down,1,0.564,,,,,,2,2,green,1,-0.2,0,4,0.141421356,0.141421356,90,0,90,90,90,0,90,90,down,0,2,2,0,2,2,2,2,-0.2,0,-0.141421356,0.141421356,0,0.2,0.141421356,0.141421356,0.2,0,0.141421356,-0.141421356,0,-0.2,-0.141421356,-0.141421356,2,1,,red,,,0,8,8,54,1,,,,,,,,,,,,
,,,999999999,2023-09-01_16h41.38.572,addsingdop,2022.2.5,MacIntel,120.0048002,,,,,down,1,0.4551,,,,,,2,FALSE,grey,5,0.2,0,3,0,0.2,90,90,90,0,90,0,90,0,down,2,2,2,2,0,2,2,2,-0.2,0,-0.141421356,0.141421356,0,0.2,0.141421356,0.141421356,0.2,0,0.141421356,-0.141421356,0,-0.2,-0.141421356,-0.141421356,2,1,,red,,,0,9,9,196,1,,,,,,,,,,,,
,,,999999999,2023-09-01_16h41.38.572,addsingdop,2022.2.5,MacIntel,120.0048002,,,,,down,1,0.5154,,,,,,2,FALSE,grey,2,-0.141421356,0.141421356,3,0,0.2,90,90,90,90,90,0,90,0,down,2,0,2,2,2,2,2,2,-0.2,0,-0.141421356,0.141421356,0,0.2,0.141421356,0.141421356,0.2,0,0.141421356,-0.141421356,0,-0.2,-0.141421356,-0.141421356,2,0,,green,,,0,10,10,161,1,,,,,,,,,,,,
,,,999999999,2023-09-01_16h41.38.572,addsingdop,2022.2.5,MacIntel,120.0048002,,,,,down,1,0.5169,,,,,,2,2,green,7,0,-0.2,4,0.141421356,0.141421356,90,0,0,90,0,90,90,0,down,2,2,2,0,2,2,0,2,-0.2,0,-0.141421356,0.141421356,0,0.2,0.141421356,0.141421356,0.2,0,0.141421356,-0.141421356,0,-0.2,-0.141421356,-0.141421356,2,0,,red,,,0,11,11,22,1,,,,,,,,,,,,
,,,999999999,2023-09-01_16h41.38.572,addsingdop,2022.2.5,MacIntel,120.0048002,,,,,right,1,0.5915,,,,,,2,FALSE,grey,5,0.2,0,3,0,0.2,90,90,0,0,0,90,0,90,right,2,2,2,2,0,2,2,2,-0.2,0,-0.141421356,0.141421356,0,0.2,0.141421356,0.141421356,0.2,0,0.141421356,-0.141421356,0,-0.2,-0.141421356,-0.141421356,2,0,,red,,,0,12,12,124,1,,,,,,,,,,,,
,,,999999999,2023-09-01_16h41.38.572,addsingdop,2022.2.5,MacIntel,120.0048002,,,,,down,1,0.5583,,,,,,2,FALSE,grey,1,-0.2,0,3,0,0.2,90,0,90,90,0,0,90,90,down,0,2,2,2,2,2,2,2,-0.2,0,-0.141421356,0.141421356,0,0.2,0.141421356,0.141421356,0.2,0,0.141421356,-0.141421356,0,-0.2,-0.141421356,-0.141421356,2,1,,green,,,0,13,13,160,1,,,,,,,,,,,,
,,,999999999,2023-09-01_16h41.38.572,addsingdop,2022.2.5,MacIntel,120.0048002,,,,,right,0,0.9841,,,,,,2,2,green,6,0.141421356,-0.141421356,4,0.141421356,0.141421356,90,0,0,90,0,90,90,90,down,2,2,2,0,2,0,2,2,-0.2,0,-0.141421356,0.141421356,0,0.2,0.141421356,0.141421356,0.2,0,0.141421356,-0.141421356,0,-0.2,-0.141421356,-0.141421356,2,0,,red,,,0,14,14,58,1,,,,,,,,,,,,
,,,999999999,2023-09-01_16h41.38.572,addsingdop,2022.2.5,MacIntel,120.0048002,,,,,,0,,,,,,,2,2,red,2,-0.141421356,0.141421356,4,0.141421356,0.141421356,90,0,0,90,0,0,0,90,right,2,0,2,0,2,2,2,2,-0.2,0,-0.141421356,0.141421356,0,0.2,0.141421356,0.141421356,0.2,0,0.141421356,-0.141421356,0,-0.2,-0.141421356,-0.141421356,2,1,,green,,,0,15,15,97,1,,,,,,,,,,,,
,,,999999999,2023-09-01_16h41.38.572,addsingdop,2022.2.5,MacIntel,120.0048002,,,,,down,0,1.3834,,,,,,2,2,green,6,0.141421356,-0.141421356,4,0.141421356,0.141421356,0,90,0,0,90,0,0,90,right,2,2,2,0,2,0,2,2,-0.2,0,-0.141421356,0.141421356,0,0.2,0.141421356,0.141421356,0.2,0,0.141421356,-0.141421356,0,-0.2,-0.141421356,-0.141421356,2,0,,red,,,0,16,16,23,1,,,,,,,,,,,,
,,,999999999,2023-09-01_16h41.38.572,addsingdop,2022.2.5,MacIntel,120.0048002,,,,,right,1,0.5838,,,,,,2,FALSE,grey,6,0.141421356,-0.141421356,3,0,0.2,90,90,0,90,90,0,90,0,right,2,2,2,2,2,0,2,2,-0.2,0,-0.141421356,0.141421356,0,0.2,0.141421356,0.141421356,0.2,0,0.141421356,-0.141421356,0,-0.2,-0.141421356,-0.141421356,2,1,,green,,,0,17,17,173,1,,,,,,,,,,,,
,,,999999999,2023-09-01_16h41.38.572,addsingdop,2022.2.5,MacIntel,120.0048002,,,,,down,1,0.653,,,,,,2,2,green,8,-0.141421356,-0.141421356,4,0.141421356,0.141421356,90,0,90,0,0,90,0,90,down,2,2,2,0,2,2,2,0,-0.2,0,-0.141421356,0.141421356,0,0.2,0.141421356,0.141421356,0.2,0,0.141421356,-0.141421356,0,-0.2,-0.141421356,-0.141421356,2,1,,red,,,0,18,18,3,1,,,,,,,,,,,,
,,,999999999,2023-09-01_16h41.38.572,addsingdop,2022.2.5,MacIntel,120.0048002,,,,,right,1,0.8853,,,,,,2,FALSE,grey,3,0,0.2,3,0,0.2,90,90,0,0,0,90,90,0,right,2,2,0,2,2,2,2,2,-0.2,0,-0.141421356,0.141421356,0,0.2,0.141421356,0.141421356,0.2,0,0.141421356,-0.141421356,0,-0.2,-0.141421356,-0.141421356,2,0,,red,,,0,19,19,178,1,,,,,,,,,,,,
,,,999999999,2023-09-01_16h41.38.572,addsingdop,2022.2.5,MacIntel,120.0048002,,,,,down,1,0.5861,,,,,,2,FALSE,grey,5,0.2,0,3,0,0.2,0,0,90,0,90,0,90,90,down,2,2,2,2,0,2,2,2,-0.2,0,-0.141421356,0.141421356,0,0.2,0.141421356,0.141421356,0.2,0,0.141421356,-0.141421356,0,-0.2,-0.141421356,-0.141421356,2,0,,red,,,0,20,20,156,1,,,,,,,,,,,,
,,,999999999,2023-09-01_16h41.38.572,addsingdop,2022.2.5,MacIntel,120.0048002,,,,,down,1,0.5202,,,,,,2,2,red,8,-0.141421356,-0.141421356,4,0.141421356,0.141421356,0,90,90,0,90,90,90,90,down,2,2,2,0,2,2,2,0,-0.2,0,-0.141421356,0.141421356,0,0.2,0.141421356,0.141421356,0.2,0,0.141421356,-0.141421356,0,-0.2,-0.141421356,-0.141421356,2,0,,green,,,0,21,21,112,1,,,,,,,,,,,,
,,,999999999,2023-09-01_16h41.38.572,addsingdop,2022.2.5,MacIntel,120.0048002,,,,,down,1,0.4036,,,,,,2,2,red,8,-0.141421356,-0.141421356,4,0.141421356,0.141421356,0,90,90,90,90,90,0,90,down,2,2,2,0,2,2,2,0,-0.2,0,-0.141421356,0.141421356,0,0.2,0.141421356,0.141421356,0.2,0,0.141421356,-0.141421356,0,-0.2,-0.141421356,-0.141421356,2,0,,green,,,0,22,22,50,1,,,,,,,,,,,,
,,,999999999,2023-09-01_16h41.38.572,addsingdop,2022.2.5,MacIntel,120.0048002,,,,,right,1,0.7801,,,,,,2,2,green,6,0.141421356,-0.141421356,4,0.141421356,0.141421356,90,90,0,0,0,0,0,0,right,2,2,2,0,2,0,2,2,-0.2,0,-0.141421356,0.141421356,0,0.2,0.141421356,0.141421356,0.2,0,0.141421356,-0.141421356,0,-0.2,-0.141421356,-0.141421356,2,0,,red,,,0,23,23,17,1,,,,,,,,,,,,
,,,999999999,2023-09-01_16h41.38.572,addsingdop,2022.2.5,MacIntel,120.0048002,,,,,down,1,1.1085,,,,,,2,2,red,6,0.141421356,-0.141421356,4,0.141421356,0.141421356,90,90,0,90,0,90,0,0,down,2,2,2,0,2,0,2,2,-0.2,0,-0.141421356,0.141421356,0,0.2,0.141421356,0.141421356,0.2,0,0.141421356,-0.141421356,0,-0.2,-0.141421356,-0.141421356,2,1,,green,,,0,24,24,69,1,,,,,,,,,,,,
,,,999999999,2023-09-01_16h41.38.572,addsingdop,2022.2.5,MacIntel,120.0048002,,,,,right,1,0.9135,,,,,,2,FALSE,grey,8,-0.141421356,-0.141421356,3,0,0.2,0,0,0,90,90,0,90,0,right,2,2,2,2,2,2,2,0,-0.2,0,-0.141421356,0.141421356,0,0.2,0.141421356,0.141421356,0.2,0,0.141421356,-0.141421356,0,-0.2,-0.141421356,-0.141421356,2,1,,red,,,0,25,25,191,1,,,,,,,,,,,,
,,,999999999,2023-09-01_16h41.38.572,addsingdop,2022.2.5,MacIntel,120.0048002,,,,,down,1,0.4978,,,,,,2,FALSE,grey,4,0.141421356,0.141421356,3,0,0.2,90,90,0,90,90,0,0,0,down,2,2,2,0,2,2,2,2,-0.2,0,-0.141421356,0.141421356,0,0.2,0.141421356,0.141421356,0.2,0,0.141421356,-0.141421356,0,-0.2,-0.141421356,-0.141421356,2,1,,green,,,0,26,26,131,1,,,,,,,,,,,,
,,,999999999,2023-09-01_16h41.38.572,addsingdop,2022.2.5,MacIntel,120.0048002,,,,,right,1,0.6128,,,,,,2,FALSE,grey,6,0.141421356,-0.141421356,3,0,0.2,0,0,0,0,90,0,90,0,right,2,2,2,2,2,0,2,2,-0.2,0,-0.141421356,0.141421356,0,0.2,0.141421356,0.141421356,0.2,0,0.141421356,-0.141421356,0,-0.2,-0.141421356,-0.141421356,2,1,,green,,,0,27,27,125,1,,,,,,,,,,,,
,,,999999999,2023-09-01_16h41.38.572,addsingdop,2022.2.5,MacIntel,120.0048002,,,,,right,1,1.1719,,,,,,2,2,red,7,0,-0.2,4,0.141421356,0.141421356,0,90,90,90,0,0,0,0,right,2,2,2,0,2,2,0,2,-0.2,0,-0.141421356,0.141421356,0,0.2,0.141421356,0.141421356,0.2,0,0.141421356,-0.141421356,0,-0.2,-0.141421356,-0.141421356,2,1,,green,,,0,28,28,79,1,,,,,,,,,,,,
,,,999999999,2023-09-01_16h41.38.572,addsingdop,2022.2.5,MacIntel,120.0048002,,,,,right,0,0.6567,,,,,,2,2,green,7,0,-0.2,4,0.141421356,0.141421356,90,90,90,0,0,90,90,0,down,2,2,2,0,2,2,0,2,-0.2,0,-0.141421356,0.141421356,0,0.2,0.141421356,0.141421356,0.2,0,0.141421356,-0.141421356,0,-0.2,-0.141421356,-0.141421356,2,0,,red,,,0,29,29,2,1,,,,,,,,,,,,
,,,999999999,2023-09-01_16h41.38.572,addsingdop,2022.2.5,MacIntel,120.0048002,,,,,down,1,0.4369,,,,,,2,FALSE,grey,8,-0.141421356,-0.141421356,3,0,0.2,90,90,90,0,0,0,90,90,down,2,2,2,2,2,2,2,0,-0.2,0,-0.141421356,0.141421356,0,0.2,0.141421356,0.141421356,0.2,0,0.141421356,-0.141421356,0,-0.2,-0.141421356,-0.141421356,2,0,,green,,,0,30,30,183,1,,,,,,,,,,,,
,,,999999999,2023-09-01_16h41.38.572,addsingdop,2022.2.5,MacIntel,120.0048002,,,,,down,1,0.4728,,,,,,2,2,red,2,-0.141421356,0.141421356,4,0.141421356,0.141421356,90,90,0,0,0,90,0,90,down,2,0,2,0,2,2,2,2,-0.2,0,-0.141421356,0.141421356,0,0.2,0.141421356,0.141421356,0.2,0,0.141421356,-0.141421356,0,-0.2,-0.141421356,-0.141421356,2,1,,green,,,0,31,31,44,1,,,,,,,,,,,,
,,,999999999,2023-09-01_16h41.38.572,addsingdop,2022.2.5,MacIntel,120.0048002,,,,,right,1,0.6063,,,,,,2,FALSE,grey,8,-0.141421356,-0.141421356,3,0,0.2,90,0,90,90,0,90,90,0,right,2,2,2,2,2,2,2,0,-0.2,0,-0.141421356,0.141421356,0,0.2,0.141421356,0.141421356,0.2,0,0.141421356,-0.141421356,0,-0.2,-0.141421356,-0.141421356,2,0,,red,,,0,32,32,127,1,,,,,,,,,,,,
,,,999999999,2023-09-01_16h41.38.572,addsingdop,2022.2.5,MacIntel,120.0048002,,,,,right,1,0.3377,,,,,,2,FALSE,grey,4,0.141421356,0.141421356,3,0,0.2,0,0,0,0,90,90,90,0,right,2,2,2,0,2,2,2,2,-0.2,0,-0.141421356,0.141421356,0,0.2,0.141421356,0.141421356,0.2,0,0.141421356,-0.141421356,0,-0.2,-0.141421356,-0.141421356,2,1,,green,,,0,33,33,171,1,,,,,,,,,,,,
,,,999999999,2023-09-01_16h41.38.572,addsingdop,2022.2.5,MacIntel,120.0048002,,,,,down,1,0.4773,,,,,,2,2,green,7,0,-0.2,4,0.141421356,0.141421356,0,90,0,0,90,0,90,0,down,2,2,2,0,2,2,0,2,-0.2,0,-0.141421356,0.141421356,0,0.2,0.141421356,0.141421356,0.2,0,0.141421356,-0.141421356,0,-0.2,-0.141421356,-0.141421356,2,0,,red,,,0,34,34,48,1,,,,,,,,,,,,
,,,999999999,2023-09-01_16h41.38.572,addsingdop,2022.2.5,MacIntel,120.0048002,,,,,down,1,0.4006,,,,,,2,2,green,8,-0.141421356,-0.141421356,4,0.141421356,0.141421356,90,90,90,0,90,90,90,90,down,2,2,2,0,2,2,2,0,-0.2,0,-0.141421356,0.141421356,0,0.2,0.141421356,0.141421356,0.2,0,0.141421356,-0.141421356,0,-0.2,-0.141421356,-0.141421356,2,1,,red,,,0,35,35,4,1,,,,,,,,,,,,
,,,999999999,2023-09-01_16h41.38.572,addsingdop,2022.2.5,MacIntel,120.0048002,,,,,down,1,0.4504,,,,,,2,2,green,7,0,-0.2,4,0.141421356,0.141421356,0,90,0,0,0,0,90,0,down,2,2,2,0,2,2,0,2,-0.2,0,-0.141421356,0.141421356,0,0.2,0.141421356,0.141421356,0.2,0,0.141421356,-0.141421356,0,-0.2,-0.141421356,-0.141421356,2,1,,red,,,0,36,36,93,1,,,,,,,,,,,,
,,,999999999,2023-09-01_16h41.38.572,addsingdop,2022.2.5,MacIntel,120.0048002,,,,,right,1,0.5393,,,,,,2,2,red,8,-0.141421356,-0.141421356,4,0.141421356,0.141421356,0,0,0,90,90,0,0,0,right,2,2,2,0,2,2,2,0,-0.2,0,-0.141421356,0.141421356,0,0.2,0.141421356,0.141421356,0.2,0,0.141421356,-0.141421356,0,-0.2,-0.141421356,-0.141421356,2,1,,green,,,0,37,37,61,1,,,,,,,,,,,,
,,,999999999,2023-09-01_16h41.38.572,addsingdop,2022.2.5,MacIntel,120.0048002,,,,,right,1,0.4015,,,,,,2,FALSE,grey,6,0.141421356,-0.141421356,3,0,0.2,90,90,90,90,0,0,0,0,right,2,2,2,2,2,0,2,2,-0.2,0,-0.141421356,0.141421356,0,0.2,0.141421356,0.141421356,0.2,0,0.141421356,-0.141421356,0,-0.2,-0.141421356,-0.141421356,2,0,,red,,,0,38,38,189,1,,,,,,,,,,,,
,,,999999999,2023-09-01_16h41.38.572,addsingdop,2022.2.5,MacIntel,120.0048002,,,,,right,1,0.3791,,,,,,2,FALSE,grey,7,0,-0.2,3,0,0.2,90,90,90,90,90,0,0,90,right,2,2,2,2,2,2,0,2,-0.2,0,-0.141421356,0.141421356,0,0.2,0.141421356,0.141421356,0.2,0,0.141421356,-0.141421356,0,-0.2,-0.141421356,-0.141421356,2,1,,red,,,0,39,39,158,1,,,,,,,,,,,,
,,,999999999,2023-09-01_16h41.38.572,addsingdop,2022.2.5,MacIntel,120.0048002,,,,,right,0,0.3284,,,,,,2,2,red,1,-0.2,0,4,0.141421356,0.141421356,90,90,90,0,90,0,90,0,down,0,2,2,0,2,2,2,2,-0.2,0,-0.141421356,0.141421356,0,0.2,0.141421356,0.141421356,0.2,0,0.141421356,-0.141421356,0,-0.2,-0.141421356,-0.141421356,2,1,,green,,,0,40,40,43,1,,,,,,,,,,,,
,,,999999999,2023-09-01_16h41.38.572,addsingdop,2022.2.5,MacIntel,120.0048002,,,,,down,0,0.5404,,,,,,2,FALSE,grey,4,0.141421356,0.141421356,3,0,0.2,0,0,90,0,90,90,90,0,right,2,2,2,0,2,2,2,2,-0.2,0,-0.141421356,0.141421356,0,0.2,0.141421356,0.141421356,0.2,0,0.141421356,-0.141421356,0,-0.2,-0.141421356,-0.141421356,2,0,,green,,,0,41,41,179,1,,,,,,,,,,,,
,,,999999999,2023-09-01_16h41.38.572,addsingdop,2022.2.5,MacIntel,120.0048002,,,,,right,0,0.4889,,,,,,2,FALSE,grey,2,-0.141421356,0.141421356,3,0,0.2,0,90,90,0,0,0,90,0,down,2,0,2,2,2,2,2,2,-0.2,0,-0.141421356,0.141421356,0,0.2,0.141421356,0.141421356,0.2,0,0.141421356,-0.141421356,0,-0.2,-0.141421356,-0.141421356,2,0,,green,,,0,42,42,177,1,,,,,,,,,,,,
,,,999999999,2023-09-01_16h41.38.572,addsingdop,2022.2.5,MacIntel,120.0048002,,,,,right,1,0.6137,,,,,,2,2,red,2,-0.141421356,0.141421356,4,0.141421356,0.141421356,0,0,90,0,90,0,0,90,right,2,0,2,0,2,2,2,2,-0.2,0,-0.141421356,0.141421356,0,0.2,0.141421356,0.141421356,0.2,0,0.141421356,-0.141421356,0,-0.2,-0.141421356,-0.141421356,2,1,,green,,,0,43,43,70,1,,,,,,,,,,,,
,,,999999999,2023-09-01_16h41.38.572,addsingdop,2022.2.5,MacIntel,120.0048002,,,,,right,1,0.5378,,,,,,2,2,green,2,-0.141421356,0.141421356,4,0.141421356,0.141421356,90,0,0,0,90,0,90,90,right,2,0,2,0,2,2,2,2,-0.2,0,-0.141421356,0.141421356,0,0.2,0.141421356,0.141421356,0.2,0,0.141421356,-0.141421356,0,-0.2,-0.141421356,-0.141421356,2,1,,red,,,0,44,44,76,1,,,,,,,,,,,,
,,,999999999,2023-09-01_16h41.38.572,addsingdop,2022.2.5,MacIntel,120.0048002,,,,,down,1,0.5027,,,,,,2,FALSE,grey,1,-0.2,0,3,0,0.2,90,90,0,90,90,0,0,0,down,0,2,2,2,2,2,2,2,-0.2,0,-0.141421356,0.141421356,0,0.2,0.141421356,0.141421356,0.2,0,0.141421356,-0.141421356,0,-0.2,-0.141421356,-0.141421356,2,0,,red,,,0,45,45,176,1,,,,,,,,,,,,
,,,999999999,2023-09-01_16h41.38.572,addsingdop,2022.2.5,MacIntel,120.0048002,,,,,right,1,0.5735,,,,,,2,2,green,8,-0.141421356,-0.141421356,4,0.141421356,0.141421356,0,90,0,90,90,90,90,0,right,2,2,2,0,2,2,2,0,-0.2,0,-0.141421356,0.141421356,0,0.2,0.141421356,0.141421356,0.2,0,0.141421356,-0.141421356,0,-0.2,-0.141421356,-0.141421356,2,1,,red,,,0,46,46,74,1,,,,,,,,,,,,
,,,999999999,2023-09-01_16h41.38.572,addsingdop,2022.2.5,MacIntel,120.0048002,,,,,right,1,0.7225,,,,,,2,FALSE,grey,2,-0.141421356,0.141421356,3,0,0.2,90,0,90,90,90,90,0,0,right,2,0,2,2,2,2,2,2,-0.2,0,-0.141421356,0.141421356,0,0.2,0.141421356,0.141421356,0.2,0,0.141421356,-0.141421356,0,-0.2,-0.141421356,-0.141421356,2,0,,green,,,0,47,47,129,1,,,,,,,,,,,,
,,,999999999,2023-09-01_16h41.38.572,addsingdop,2022.2.5,MacIntel,120.0048002,,,,,right,1,0.4577,,,,,,2,FALSE,grey,7,0,-0.2,3,0,0.2,0,0,90,0,90,0,0,0,right,2,2,2,2,2,2,0,2,-0.2,0,-0.141421356,0.141421356,0,0.2,0.141421356,0.141421356,0.2,0,0.141421356,-0.141421356,0,-0.2,-0.141421356,-0.141421356,2,1,,red,,,0,48,48,190,1,,,,,,,,,,,,
,,,999999999,2023-09-01_16h41.38.572,addsingdop,2022.2.5,MacIntel,120.0048002,,,,,down,1,0.5748,,,,,,2,2,green,6,0.141421356,-0.141421356,4,0.141421356,0.141421356,90,0,0,0,0,90,0,90,down,2,2,2,0,2,0,2,2,-0.2,0,-0.141421356,0.141421356,0,0.2,0.141421356,0.141421356,0.2,0,0.141421356,-0.141421356,0,-0.2,-0.141421356,-0.141421356,2,0,,red,,,0,49,49,62,1,,,,,,,,,,,,
,,,999999999,2023-09-01_16h41.38.572,addsingdop,2022.2.5,MacIntel,120.0048002,,,,,down,1,0.5947,,,,,,2,FALSE,grey,4,0.141421356,0.141421356,3,0,0.2,90,0,90,90,0,90,0,0,down,2,2,2,0,2,2,2,2,-0.2,0,-0.141421356,0.141421356,0,0.2,0.141421356,0.141421356,0.2,0,0.141421356,-0.141421356,0,-0.2,-0.141421356,-0.141421356,2,1,,green,,,0,50,50,163,1,,,,,,,,,,,,
,,,999999999,2023-09-01_16h41.38.572,addsingdop,2022.2.5,MacIntel,120.0048002,,,,,down,1,0.4043,,,,,,2,2,red,6,0.141421356,-0.141421356,4,0.141421356,0.141421356,90,90,90,90,0,90,90,0,down,2,2,2,0,2,0,2,2,-0.2,0,-0.141421356,0.141421356,0,0.2,0.141421356,0.141421356,0.2,0,0.141421356,-0.141421356,0,-0.2,-0.141421356,-0.141421356,2,1,,green,,,0,51,51,102,1,,,,,,,,,,,,
,,,999999999,2023-09-01_16h41.38.572,addsingdop,2022.2.5,MacIntel,120.0048002,,,,,right,1,0.6809,,,,,,2,FALSE,grey,8,-0.141421356,-0.141421356,3,0,0.2,0,0,0,0,0,0,90,0,right,2,2,2,2,2,2,2,0,-0.2,0,-0.141421356,0.141421356,0,0.2,0.141421356,0.141421356,0.2,0,0.141421356,-0.141421356,0,-0.2,-0.141421356,-0.141421356,2,0,,green,,,0,52,52,199,1,,,,,,,,,,,,
,,,999999999,2023-09-01_16h41.38.572,addsingdop,2022.2.5,MacIntel,120.0048002,,,,,right,1,0.4999,,,,,,2,FALSE,grey,4,0.141421356,0.141421356,3,0,0.2,90,0,90,0,90,0,90,0,right,2,2,2,0,2,2,2,2,-0.2,0,-0.141421356,0.141421356,0,0.2,0.141421356,0.141421356,0.2,0,0.141421356,-0.141421356,0,-0.2,-0.141421356,-0.141421356,2,1,,green,,,0,53,53,155,1,,,,,,,,,,,,
,,,999999999,2023-09-01_16h41.38.572,addsingdop,2022.2.5,MacIntel,120.0048002,,,,,down,1,0.514,,,,,,2,FALSE,grey,4,0.141421356,0.141421356,3,0,0.2,0,0,90,90,90,90,0,90,down,2,2,2,0,2,2,2,2,-0.2,0,-0.141421356,0.141421356,0,0.2,0.141421356,0.141421356,0.2,0,0.141421356,-0.141421356,0,-0.2,-0.141421356,-0.141421356,2,1,,green,,,0,54,54,187,1,,,,,,,,,,,,
,,,999999999,2023-09-01_16h41.38.572,addsingdop,2022.2.5,MacIntel,120.0048002,,,,,down,1,1.0592,,,,,,2,2,green,5,0.2,0,4,0.141421356,0.141421356,90,90,90,90,90,90,90,0,down,2,2,2,0,0,2,2,2,-0.2,0,-0.141421356,0.141421356,0,0.2,0.141421356,0.141421356,0.2,0,0.141421356,-0.141421356,0,-0.2,-0.141421356,-0.141421356,2,0,,red,,,0,55,55,38,1,,,,,,,,,,,,
,,,999999999,2023-09-01_16h41.38.572,addsingdop,2022.2.5,MacIntel,120.0048002,,,,,right,1,0.97,,,,,,2,2,green,3,0,0.2,4,0.141421356,0.141421356,0,90,0,90,0,90,90,90,right,2,2,0,0,2,2,2,2,-0.2,0,-0.141421356,0.141421356,0,0.2,0.141421356,0.141421356,0.2,0,0.141421356,-0.141421356,0,-0.2,-0.141421356,-0.141421356,2,1,,red,,,0,56,56,83,1,,,,,,,,,,,,
,,,999999999,2023-09-01_16h41.38.572,addsingdop,2022.2.5,MacIntel,120.0048002,,,,,right,1,1.4129,,,,,,2,2,green,7,0,-0.2,4,0.141421356,0.141421356,0,90,90,90,0,0,0,90,right,2,2,2,0,2,2,0,2,-0.2,0,-0.141421356,0.141421356,0,0.2,0.141421356,0.141421356,0.2,0,0.141421356,-0.141421356,0,-0.2,-0.141421356,-0.141421356,2,0,,red,,,0,57,57,110,1,,,,,,,,,,,,
,,,999999999,2023-09-01_16h41.38.572,addsingdop,2022.2.5,MacIntel,120.0048002,,,,,right,0,0.5914,,,,,,2,2,green,1,-0.2,0,4,0.141421356,0.141421356,90,0,0,0,0,90,90,0,down,0,2,2,0,2,2,2,2,-0.2,0,-0.141421356,0.141421356,0,0.2,0.141421356,0.141421356,0.2,0,0.141421356,-0.141421356,0,-0.2,-0.141421356,-0.141421356,2,1,,red,,,0,58,58,53,1,,,,,,,,,,,,
,,,999999999,2023-09-01_16h41.38.572,addsingdop,2022.2.5,MacIntel,120.0048002,,,,,right,0,0.5297,,,,,,2,FALSE,grey,1,-0.2,0,3,0,0.2,90,0,0,90,0,90,90,0,down,0,2,2,2,2,2,2,2,-0.2,0,-0.141421356,0.141421356,0,0.2,0.141421356,0.141421356,0.2,0,0.141421356,-0.141421356,0,-0.2,-0.141421356,-0.141421356,2,1,,red,,,0,59,59,120,1,,,,,,,,,,,,
,,,999999999,2023-09-01_16h41.38.572,addsingdop,2022.2.5,MacIntel,120.0048002,,,,,down,1,0.6989,,,,,,2,2,green,7,0,-0.2,4,0.141421356,0.141421356,0,90,0,0,90,90,90,0,down,2,2,2,0,2,2,0,2,-0.2,0,-0.141421356,0.141421356,0,0.2,0.141421356,0.141421356,0.2,0,0.141421356,-0.141421356,0,-0.2,-0.141421356,-0.141421356,2,1,,red,,,0,60,60,9,1,,,,,,,,,,,,
,,,999999999,2023-09-01_16h41.38.572,addsingdop,2022.2.5,MacIntel,120.0048002,,,,,down,1,0.601,,,,,,2,2,green,1,-0.2,0,4,0.141421356,0.141421356,90,90,90,0,90,0,90,90,down,0,2,2,0,2,2,2,2,-0.2,0,-0.141421356,0.141421356,0,0.2,0.141421356,0.141421356,0.2,0,0.141421356,-0.141421356,0,-0.2,-0.141421356,-0.141421356,2,0,,red,,,0,61,61,10,1,,,,,,,,,,,,
,,,999999999,2023-09-01_16h41.38.572,addsingdop,2022.2.5,MacIntel,120.0048002,,,,,down,1,0.6383,,,,,,2,FALSE,grey,6,0.141421356,-0.141421356,3,0,0.2,0,90,0,0,0,90,90,0,down,2,2,2,2,2,0,2,2,-0.2,0,-0.141421356,0.141421356,0,0.2,0.141421356,0.141421356,0.2,0,0.141421356,-0.141421356,0,-0.2,-0.141421356,-0.141421356,2,1,,red,,,0,62,62,157,1,,,,,,,,,,,,
,,,999999999,2023-09-01_16h41.38.572,addsingdop,2022.2.5,MacIntel,120.0048002,,,,,down,1,0.5295,,,,,,2,FALSE,grey,8,-0.141421356,-0.141421356,3,0,0.2,0,0,90,90,0,90,90,90,down,2,2,2,2,2,2,2,0,-0.2,0,-0.141421356,0.141421356,0,0.2,0.141421356,0.141421356,0.2,0,0.141421356,-0.141421356,0,-0.2,-0.141421356,-0.141421356,2,0,,red,,,0,63,63,151,1,,,,,,,,,,,,
,,,999999999,2023-09-01_16h41.38.572,addsingdop,2022.2.5,MacIntel,120.0048002,,,,,right,1,0.9721,,,,,,2,2,green,3,0,0.2,4,0.141421356,0.141421356,90,90,0,0,90,90,90,90,right,2,2,0,0,2,2,2,2,-0.2,0,-0.141421356,0.141421356,0,0.2,0.141421356,0.141421356,0.2,0,0.141421356,-0.141421356,0,-0.2,-0.141421356,-0.141421356,2,0,,red,,,0,64,64,19,1,,,,,,,,,,,,
,,,999999999,2023-09-01_16h41.38.572,addsingdop,2022.2.5,MacIntel,120.0048002,,,,,down,1,0.6797,,,,,,2,2,green,5,0.2,0,4,0.141421356,0.141421356,0,90,0,0,90,90,0,90,down,2,2,2,0,0,2,2,2,-0.2,0,-0.141421356,0.141421356,0,0.2,0.141421356,0.141421356,0.2,0,0.141421356,-0.141421356,0,-0.2,-0.141421356,-0.141421356,2,1,,red,,,0,65,65,0,1,,,,,,,,,,,,
,,,999999999,2023-09-01_16h41.38.572,addsingdop,2022.2.5,MacIntel,120.0048002,,,,,down,1,0.6631,,,,,,2,2,red,2,-0.141421356,0.141421356,4,0.141421356,0.141421356,0,90,90,90,90,90,90,0,down,2,0,2,0,2,2,2,2,-0.2,0,-0.141421356,0.141421356,0,0.2,0.141421356,0.141421356,0.2,0,0.141421356,-0.141421356,0,-0.2,-0.141421356,-0.141421356,2,1,,green,,,0,66,66,34,1,,,,,,,,,,,,
,,,999999999,2023-09-01_16h41.38.572,addsingdop,2022.2.5,MacIntel,120.0048002,,,,,right,1,0.6657,,,,,,2,FALSE,grey,8,-0.141421356,-0.141421356,3,0,0.2,0,0,0,90,90,0,90,0,right,2,2,2,2,2,2,2,0,-0.2,0,-0.141421356,0.141421356,0,0.2,0.141421356,0.141421356,0.2,0,0.141421356,-0.141421356,0,-0.2,-0.141421356,-0.141421356,2,0,,red,,,0,67,67,135,1,,,,,,,,,,,,
,,,999999999,2023-09-01_16h41.38.572,addsingdop,2022.2.5,MacIntel,120.0048002,,,,,down,1,0.5491,,,,,,2,2,red,6,0.141421356,-0.141421356,4,0.141421356,0.141421356,90,0,0,90,90,90,90,90,down,2,2,2,0,2,0,2,2,-0.2,0,-0.141421356,0.141421356,0,0.2,0.141421356,0.141421356,0.2,0,0.141421356,-0.141421356,0,-0.2,-0.141421356,-0.141421356,2,1,,green,,,0,68,68,80,1,,,,,,,,,,,,
,,,999999999,2023-09-01_16h41.38.572,addsingdop,2022.2.5,MacIntel,120.0048002,,,,,down,1,0.7885,,,,,,2,2,green,3,0,0.2,4,0.141421356,0.141421356,90,90,90,0,90,90,0,0,down,2,2,0,0,2,2,2,2,-0.2,0,-0.141421356,0.141421356,0,0.2,0.141421356,0.141421356,0.2,0,0.141421356,-0.141421356,0,-0.2,-0.141421356,-0.141421356,2,0,,red,,,0,69,69,67,1,,,,,,,,,,,,
,,,999999999,2023-09-01_16h41.38.572,addsingdop,2022.2.5,MacIntel,120.0048002,,,,,down,1,0.4786,,,,,,2,2,red,3,0,0.2,4,0.141421356,0.141421356,0,90,90,0,90,0,0,90,down,2,2,0,0,2,2,2,2,-0.2,0,-0.141421356,0.141421356,0,0.2,0.141421356,0.141421356,0.2,0,0.141421356,-0.141421356,0,-0.2,-0.141421356,-0.141421356,2,1,,green,,,0,70,70,101,1,,,,,,,,,,,,
,,,999999999,2023-09-01_16h41.38.572,addsingdop,2022.2.5,MacIntel,120.0048002,,,,,down,1,0.7757,,,,,,2,2,red,7,0,-0.2,4,0.141421356,0.141421356,0,0,90,0,90,90,90,90,down,2,2,2,0,2,2,0,2,-0.2,0,-0.141421356,0.141421356,0,0.2,0.141421356,0.141421356,0.2,0,0.141421356,-0.141421356,0,-0.2,-0.141421356,-0.141421356,2,0,,green,,,0,71,71,63,1,,,,,,,,,,,,
,,,999999999,2023-09-01_16h41.38.572,addsingdop,2022.2.5,MacIntel,120.0048002,,,,,down,1,0.6207,,,,,,2,2,red,2,-0.141421356,0.141421356,4,0.141421356,0.141421356,0,90,0,0,0,90,90,0,down,2,0,2,0,2,2,2,2,-0.2,0,-0.141421356,0.141421356,0,0.2,0.141421356,0.141421356,0.2,0,0.141421356,-0.141421356,0,-0.2,-0.141421356,-0.141421356,2,0,,green,,,0,72,72,75,1,,,,,,,,,,,,
,,,999999999,2023-09-01_16h41.38.572,addsingdop,2022.2.5,MacIntel,120.0048002,,,,,right,1,0.4797,,,,,,2,FALSE,grey,5,0.2,0,3,0,0.2,0,90,90,90,0,90,0,0,right,2,2,2,2,0,2,2,2,-0.2,0,-0.141421356,0.141421356,0,0.2,0.141421356,0.141421356,0.2,0,0.141421356,-0.141421356,0,-0.2,-0.141421356,-0.141421356,2,0,,red,,,0,73,73,132,1,,,,,,,,,,,,
,,,999999999,2023-09-01_16h41.38.572,addsingdop,2022.2.5,MacIntel,120.0048002,,,,,down,1,0.4784,,,,,,2,2,red,7,0,-0.2,4,0.141421356,0.141421356,0,90,0,0,90,0,90,90,down,2,2,2,0,2,2,0,2,-0.2,0,-0.141421356,0.141421356,0,0.2,0.141421356,0.141421356,0.2,0,0.141421356,-0.141421356,0,-0.2,-0.141421356,-0.141421356,2,1,,green,,,0,74,74,59,1,,,,,,,,,,,,
,,,999999999,2023-09-01_16h41.38.572,addsingdop,2022.2.5,MacIntel,120.0048002,,,,,down,1,0.4389,,,,,,2,2,green,8,-0.141421356,-0.141421356,4,0.141421356,0.141421356,90,90,90,90,90,0,90,90,down,2,2,2,0,2,2,2,0,-0.2,0,-0.141421356,0.141421356,0,0.2,0.141421356,0.141421356,0.2,0,0.141421356,-0.141421356,0,-0.2,-0.141421356,-0.141421356,2,1,,red,,,0,75,75,52,1,,,,,,,,,,,,
,,,999999999,2023-09-01_16h41.38.572,addsingdop,2022.2.5,MacIntel,120.0048002,,,,,right,1,0.6162,,,,,,2,2,green,2,-0.141421356,0.141421356,4,0.141421356,0.141421356,90,0,0,0,90,0,0,90,right,2,0,2,0,2,2,2,2,-0.2,0,-0.141421356,0.141421356,0,0.2,0.141421356,0.141421356,0.2,0,0.141421356,-0.141421356,0,-0.2,-0.141421356,-0.141421356,2,0,,red,,,0,76,76,46,1,,,,,,,,,,,,
,,,999999999,2023-09-01_16h41.38.572,addsingdop,2022.2.5,MacIntel,120.0048002,,,,,down,1,0.5818,,,,,,2,2,green,2,-0.141421356,0.141421356,4,0.141421356,0.141421356,90,90,0,90,90,0,0,90,down,2,0,2,0,2,2,2,2,-0.2,0,-0.141421356,0.141421356,0,0.2,0.141421356,0.141421356,0.2,0,0.141421356,-0.141421356,0,-0.2,-0.141421356,-0.141421356,2,1,,red,,,0,77,77,85,1,,,,,,,,,,,,
,,,999999999,2023-09-01_16h41.38.572,addsingdop,2022.2.5,MacIntel,120.0048002,,,,,right,1,1.0952,,,,,,2,FALSE,grey,8,-0.141421356,-0.141421356,3,0,0.2,0,0,0,0,0,0,90,0,right,2,2,2,2,2,2,2,0,-0.2,0,-0.141421356,0.141421356,0,0.2,0.141421356,0.141421356,0.2,0,0.141421356,-0.141421356,0,-0.2,-0.141421356,-0.141421356,2,0,,red,,,0,78,78,175,1,,,,,,,,,,,,
,,,999999999,2023-09-01_16h41.38.572,addsingdop,2022.2.5,MacIntel,120.0048002,,,,,down,1,0.5748,,,,,,2,FALSE,grey,2,-0.141421356,0.141421356,3,0,0.2,90,90,0,90,0,90,0,0,down,2,0,2,2,2,2,2,2,-0.2,0,-0.141421356,0.141421356,0,0.2,0.141421356,0.141421356,0.2,0,0.141421356,-0.141421356,0,-0.2,-0.141421356,-0.141421356,2,0,,green,,,0,79,79,121,1,,,,,,,,,,,,
,,,999999999,2023-09-01_16h41.38.572,addsingdop,2022.2.5,MacIntel,120.0048002,,,,,right,1,0.5791,,,,,,2,2,green,7,0,-0.2,4,0.141421356,0.141421356,0,90,90,90,0,0,0,90,right,2,2,2,0,2,2,0,2,-0.2,0,-0.141421356,0.141421356,0,0.2,0.141421356,0.141421356,0.2,0,0.141421356,-0.141421356,0,-0.2,-0.141421356,-0.141421356,2,1,,red,,,0,80,80,111,1,,,,,,,,,,,,
,,,999999999,2023-09-01_16h41.38.572,addsingdop,2022.2.5,MacIntel,120.0048002,,,,,right,1,0.6959,,,,,,2,2,red,6,0.141421356,-0.141421356,4,0.141421356,0.141421356,90,90,0,90,0,0,0,90,right,2,2,2,0,2,0,2,2,-0.2,0,-0.141421356,0.141421356,0,0.2,0.141421356,0.141421356,0.2,0,0.141421356,-0.141421356,0,-0.2,-0.141421356,-0.141421356,2,1,,green,,,0,81,81,37,1,,,,,,,,,,,,
,,,999999999,2023-09-01_16h41.38.572,addsingdop,2022.2.5,MacIntel,120.0048002,,,,,right,1,0.6302,,,,,,2,FALSE,grey,5,0.2,0,3,0,0.2,0,0,90,90,0,90,0,90,right,2,2,2,2,0,2,2,2,-0.2,0,-0.141421356,0.141421356,0,0.2,0.141421356,0.141421356,0.2,0,0.141421356,-0.141421356,0,-0.2,-0.141421356,-0.141421356,2,1,,green,,,0,82,82,140,1,,,,,,,,,,,,
,,,999999999,2023-09-01_16h41.38.572,addsingdop,2022.2.5,MacIntel,120.0048002,,,,,right,0,0.4638,,,,,,2,FALSE,grey,5,0.2,0,3,0,0.2,90,0,90,0,90,90,90,0,down,2,2,2,2,0,2,2,2,-0.2,0,-0.141421356,0.141421356,0,0.2,0.141421356,0.141421356,0.2,0,0.141421356,-0.141421356,0,-0.2,-0.141421356,-0.141421356,2,1,,red,,,0,83,83,172,1,,,,,,,,,,,,
,,,999999999,2023-09-01_16h41.38.572,addsingdop,2022.2.5,MacIntel,120.0048002,,,,,right,1,0.7246,,,,,,2,2,red,8,-0.141421356,-0.141421356,4,0.141421356,0.141421356,0,0,0,0,90,0,0,0,right,2,2,2,0,2,2,2,0,-0.2,0,-0.141421356,0.141421356,0,0.2,0.141421356,0.141421356,0.2,0,0.141421356,-0.141421356,0,-0.2,-0.141421356,-0.141421356,2,0,,green,,,0,84,84,90,1,,,,,,,,,,,,
,,,999999999,2023-09-01_16h41.38.572,addsingdop,2022.2.5,MacIntel,120.0048002,,,,,right,1,0.5656,,,,,,2,2,red,3,0,0.2,4,0.141421356,0.141421356,90,0,0,0,90,0,90,0,right,2,2,0,0,2,2,2,2,-0.2,0,-0.141421356,0.141421356,0,0.2,0.141421356,0.141421356,0.2,0,0.141421356,-0.141421356,0,-0.2,-0.141421356,-0.141421356,2,1,,green,,,0,85,85,39,1,,,,,,,,,,,,
,,,999999999,2023-09-01_16h41.38.572,addsingdop,2022.2.5,MacIntel,120.0048002,,,,,down,1,0.6441,,,,,,2,2,green,1,-0.2,0,4,0.141421356,0.141421356,90,0,0,0,90,0,0,90,down,0,2,2,0,2,2,2,2,-0.2,0,-0.141421356,0.141421356,0,0.2,0.141421356,0.141421356,0.2,0,0.141421356,-0.141421356,0,-0.2,-0.141421356,-0.141421356,2,0,,red,,,0,86,86,95,1,,,,,,,,,,,,
,,,999999999,2023-09-01_16h41.38.572,addsingdop,2022.2.5,MacIntel,120.0048002,,,,,down,1,2.248,,,,,,2,2,green,5,0.2,0,4,0.141421356,0.141421356,90,0,90,0,90,90,0,0,down,2,2,2,0,0,2,2,2,-0.2,0,-0.141421356,0.141421356,0,0.2,0.141421356,0.141421356,0.2,0,0.141421356,-0.141421356,0,-0.2,-0.141421356,-0.141421356,2,0,,red,,,0,87,87,119,1,,,,,,,,,,,,
,,,999999999,2023-09-01_16h41.38.572,addsingdop,2022.2.5,MacIntel,120.0048002,,,,,,0,,,,,,,2,FALSE,grey,3,0,0.2,3,0,0.2,0,0,0,90,90,90,0,90,right,2,2,0,2,2,2,2,2,-0.2,0,-0.141421356,0.141421356,0,0.2,0.141421356,0.141421356,0.2,0,0.141421356,-0.141421356,0,-0.2,-0.141421356,-0.141421356,2,1,,green,,,0,88,88,130,1,,,,,,,,,,,,
,,,999999999,2023-09-01_16h41.38.572,addsingdop,2022.2.5,MacIntel,120.0048002,,,,,down,1,0.5149,,,,,,2,FALSE,grey,2,-0.141421356,0.141421356,3,0,0.2,0,90,0,0,0,90,0,90,down,2,0,2,2,2,2,2,2,-0.2,0,-0.141421356,0.141421356,0,0.2,0.141421356,0.141421356,0.2,0,0.141421356,-0.141421356,0,-0.2,-0.141421356,-0.141421356,2,0,,green,,,0,89,89,145,1,,,,,,,,,,,,
,,,999999999,2023-09-01_16h41.38.572,addsingdop,2022.2.5,MacIntel,120.0048002,,,,,right,1,1.2117,,,,,,2,2,red,7,0,-0.2,4,0.141421356,0.141421356,0,90,90,90,0,90,0,0,right,2,2,2,0,2,2,0,2,-0.2,0,-0.141421356,0.141421356,0,0.2,0.141421356,0.141421356,0.2,0,0.141421356,-0.141421356,0,-0.2,-0.141421356,-0.141421356,2,0,,green,,,0,90,90,5,1,,,,,,,,,,,,
,,,999999999,2023-09-01_16h41.38.572,addsingdop,2022.2.5,MacIntel,120.0048002,,,,,right,1,0.5214,,,,,,2,2,green,6,0.141421356,-0.141421356,4,0.141421356,0.141421356,90,0,90,0,90,0,90,90,right,2,2,2,0,2,0,2,2,-0.2,0,-0.141421356,0.141421356,0,0.2,0.141421356,0.141421356,0.2,0,0.141421356,-0.141421356,0,-0.2,-0.141421356,-0.141421356,2,1,,red,,,0,91,91,91,1,,,,,,,,,,,,
,,,999999999,2023-09-01_16h41.38.572,addsingdop,2022.2.5,MacIntel,120.0048002,,,,,right,1,1.0669,,,,,,2,FALSE,grey,2,-0.141421356,0.141421356,3,0,0.2,90,0,0,0,0,0,0,0,right,2,0,2,2,2,2,2,2,-0.2,0,-0.141421356,0.141421356,0,0.2,0.141421356,0.141421356,0.2,0,0.141421356,-0.141421356,0,-0.2,-0.141421356,-0.141421356,2,1,,red,,,0,92,92,153,1,,,,,,,,,,,,
,,,999999999,2023-09-01_16h41.38.572,addsingdop,2022.2.5,MacIntel,120.0048002,,,,,,0,,,,,,,2,2,red,6,0.141421356,-0.141421356,4,0.141421356,0.141421356,90,90,0,90,0,0,0,90,right,2,2,2,0,2,0,2,2,-0.2,0,-0.141421356,0.141421356,0,0.2,0.141421356,0.141421356,0.2,0,0.141421356,-0.141421356,0,-0.2,-0.141421356,-0.141421356,2,1,,green,,,0,93,93,86,1,,,,,,,,,,,,
,,,999999999,2023-09-01_16h41.38.572,addsingdop,2022.2.5,MacIntel,120.0048002,,,,,down,1,1.1821,,,,,,2,2,red,2,-0.141421356,0.141421356,4,0.141421356,0.141421356,0,90,90,0,0,0,90,0,down,2,0,2,0,2,2,2,2,-0.2,0,-0.141421356,0.141421356,0,0.2,0.141421356,0.141421356,0.2,0,0.141421356,-0.141421356,0,-0.2,-0.141421356,-0.141421356,2,1,,green,,,0,94,94,78,1,,,,,,,,,,,,
,,,999999999,2023-09-01_16h41.38.572,addsingdop,2022.2.5,MacIntel,120.0048002,,,,,,0,,,,,,,2,2,green,1,-0.2,0,4,0.141421356,0.141421356,0,90,0,90,0,90,0,90,right,0,2,2,0,2,2,2,2,-0.2,0,-0.141421356,0.141421356,0,0.2,0.141421356,0.141421356,0.2,0,0.141421356,-0.141421356,0,-0.2,-0.141421356,-0.141421356,2,0,,red,,,0,95,95,100,1,,,,,,,,,,,,
,,,999999999,2023-09-01_16h41.38.572,addsingdop,2022.2.5,MacIntel,120.0048002,,,,,right,1,1.3115,,,,,,2,FALSE,grey,1,-0.2,0,3,0,0.2,0,90,0,90,90,0,0,90,right,0,2,2,2,2,2,2,2,-0.2,0,-0.141421356,0.141421356,0,0.2,0.141421356,0.141421356,0.2,0,0.141421356,-0.141421356,0,-0.2,-0.141421356,-0.141421356,2,0,,red,,,0,96,96,152,1,,,,,,,,,,,,
,,,999999999,2023-09-01_16h41.38.572,addsingdop,2022.2.5,MacIntel,120.0048002,,,,,down,1,0.4924,,,,,,2,FALSE,grey,1,-0.2,0,3,0,0.2,90,90,90,90,0,0,0,90,down,0,2,2,2,2,2,2,2,-0.2,0,-0.141421356,0.141421356,0,0.2,0.141421356,0.141421356,0.2,0,0.141421356,-0.141421356,0,-0.2,-0.141421356,-0.141421356,2,0,,green,,,0,97,97,184,1,,,,,,,,,,,,
,,,999999999,2023-09-01_16h41.38.572,addsingdop,2022.2.5,MacIntel,120.0048002,,,,,right,1,1.1026,,,,,,2,2,green,6,0.141421356,-0.141421356,4,0.141421356,0.141421356,0,90,0,0,90,0,0,0,right,2,2,2,0,2,0,2,2,-0.2,0,-0.141421356,0.141421356,0,0.2,0.141421356,0.141421356,0.2,0,0.141421356,-0.141421356,0,-0.2,-0.141421356,-0.141421356,2,0,,red,,,0,98,98,89,1,,,,,,,,,,,,
,,,999999999,2023-09-01_16h41.38.572,addsingdop,2022.2.5,MacIntel,120.0048002,,,,,down,1,1.0623,,,,,,2,2,green,3,0,0.2,4,0.141421356,0.141421356,90,90,90,0,90,0,0,0,down,2,2,0,0,2,2,2,2,-0.2,0,-0.141421356,0.141421356,0,0.2,0.141421356,0.141421356,0.2,0,0.141421356,-0.141421356,0,-0.2,-0.141421356,-0.141421356,2,0,,red,,,0,99,99,11,1,,,,,,,,,,,,
,,,999999999,2023-09-01_16h41.38.572,addsingdop,2022.2.5,MacIntel,120.0048002,,,,,right,1,0.5387,,,,,,2,FALSE,grey,5,0.2,0,3,0,0.2,90,90,90,90,0,90,0,90,right,2,2,2,2,0,2,2,2,-0.2,0,-0.141421356,0.141421356,0,0.2,0.141421356,0.141421356,0.2,0,0.141421356,-0.141421356,0,-0.2,-0.141421356,-0.141421356,2,0,,green,,,0,100,100,188,1,,,,,,,,,,,,
,,,999999999,2023-09-01_16h41.38.572,addsingdop,2022.2.5,MacIntel,120.0048002,,,,,right,1,1.1847,,,,,,2,2,green,7,0,-0.2,4,0.141421356,0.141421356,0,90,0,0,0,0,0,0,right,2,2,2,0,2,2,0,2,-0.2,0,-0.141421356,0.141421356,0,0.2,0.141421356,0.141421356,0.2,0,0.141421356,-0.141421356,0,-0.2,-0.141421356,-0.141421356,2,0,,red,,,0,101,101,60,1,,,,,,,,,,,,
,,,999999999,2023-09-01_16h41.38.572,addsingdop,2022.2.5,MacIntel,120.0048002,,,,,right,1,0.5713,,,,,,2,2,green,1,-0.2,0,4,0.141421356,0.141421356,0,90,0,90,0,0,0,0,right,0,2,2,0,2,2,2,2,-0.2,0,-0.141421356,0.141421356,0,0.2,0.141421356,0.141421356,0.2,0,0.141421356,-0.141421356,0,-0.2,-0.141421356,-0.141421356,2,1,,red,,,0,102,102,88,1,,,,,,,,,,,,
,,,999999999,2023-09-01_16h41.38.572,addsingdop,2022.2.5,MacIntel,120.0048002,,,,,right,1,0.4332,,,,,,2,2,green,6,0.141421356,-0.141421356,4,0.141421356,0.141421356,90,0,90,90,90,0,90,0,right,2,2,2,0,2,0,2,2,-0.2,0,-0.141421356,0.141421356,0,0.2,0.141421356,0.141421356,0.2,0,0.141421356,-0.141421356,0,-0.2,-0.141421356,-0.141421356,2,1,,red,,,0,103,103,92,1,,,,,,,,,,,,
,,,999999999,2023-09-01_16h41.38.572,addsingdop,2022.2.5,MacIntel,120.0048002,,,,,,0,,,,,,,2,FALSE,grey,8,-0.141421356,-0.141421356,3,0,0.2,90,90,0,90,0,90,90,90,down,2,2,2,2,2,2,2,0,-0.2,0,-0.141421356,0.141421356,0,0.2,0.141421356,0.141421356,0.2,0,0.141421356,-0.141421356,0,-0.2,-0.141421356,-0.141421356,2,0,,red,,,0,104,104,143,1,,,,,,,,,,,,
,,,999999999,2023-09-01_16h41.38.572,addsingdop,2022.2.5,MacIntel,120.0048002,,,,,right,1,1.7495,,,,,,2,2,red,1,-0.2,0,4,0.141421356,0.141421356,0,90,90,90,0,0,90,0,right,0,2,2,0,2,2,2,2,-0.2,0,-0.141421356,0.141421356,0,0.2,0.141421356,0.141421356,0.2,0,0.141421356,-0.141421356,0,-0.2,-0.141421356,-0.141421356,2,0,,green,,,0,105,105,104,1,,,,,,,,,,,,
,,,999999999,2023-09-01_16h41.38.572,addsingdop,2022.2.5,MacIntel,120.0048002,,,,,right,1,0.6264,,,,,,2,FALSE,grey,3,0,0.2,3,0,0.2,90,90,0,0,90,0,0,90,right,2,2,0,2,2,2,2,2,-0.2,0,-0.141421356,0.141421356,0,0.2,0.141421356,0.141421356,0.2,0,0.141421356,-0.141421356,0,-0.2,-0.141421356,-0.141421356,2,1,,green,,,0,106,106,162,1,,,,,,,,,,,,
,,,999999999,2023-09-01_16h41.38.572,addsingdop,2022.2.5,MacIntel,120.0048002,,,,,right,1,1.8907,,,,,,2,2,green,3,0,0.2,4,0.141421356,0.141421356,90,0,0,0,0,0,90,90,right,2,2,0,0,2,2,2,2,-0.2,0,-0.141421356,0.141421356,0,0.2,0.141421356,0.141421356,0.2,0,0.141421356,-0.141421356,0,-0.2,-0.141421356,-0.141421356,2,0,,red,,,0,107,107,21,1,,,,,,,,,,,,
,,,999999999,2023-09-01_16h41.38.572,addsingdop,2022.2.5,MacIntel,120.0048002,,,,,down,1,1.3169,,,,,,2,2,green,8,-0.141421356,-0.141421356,4,0.141421356,0.141421356,0,0,90,90,0,0,90,90,down,2,2,2,0,2,2,2,0,-0.2,0,-0.141421356,0.141421356,0,0.2,0.141421356,0.141421356,0.2,0,0.141421356,-0.141421356,0,-0.2,-0.141421356,-0.141421356,2,1,,red,,,0,108,108,7,1,,,,,,,,,,,,
,,,999999999,2023-09-01_16h41.38.572,addsingdop,2022.2.5,MacIntel,120.0048002,,,,,right,1,0.8171,,,,,,2,2,red,8,-0.141421356,-0.141421356,4,0.141421356,0.141421356,0,90,90,90,90,0,0,0,right,2,2,2,0,2,2,2,0,-0.2,0,-0.141421356,0.141421356,0,0.2,0.141421356,0.141421356,0.2,0,0.141421356,-0.141421356,0,-0.2,-0.141421356,-0.141421356,2,1,,green,,,0,109,109,72,1,,,,,,,,,,,,
,,,999999999,2023-09-01_16h41.38.572,addsingdop,2022.2.5,MacIntel,120.0048002,,,,,right,1,2.1044,,,,,,2,2,green,7,0,-0.2,4,0.141421356,0.141421356,90,0,0,0,0,90,0,90,right,2,2,2,0,2,2,0,2,-0.2,0,-0.141421356,0.141421356,0,0.2,0.141421356,0.141421356,0.2,0,0.141421356,-0.141421356,0,-0.2,-0.141421356,-0.141421356,2,0,,red,,,0,110,110,56,1,,,,,,,,,,,,
,,,999999999,2023-09-01_16h41.38.572,addsingdop,2022.2.5,MacIntel,120.0048002,,,,,down,1,0.7017,,,,,,2,FALSE,grey,4,0.141421356,0.141421356,3,0,0.2,90,90,90,90,0,90,90,90,down,2,2,2,0,2,2,2,2,-0.2,0,-0.141421356,0.141421356,0,0.2,0.141421356,0.141421356,0.2,0,0.141421356,-0.141421356,0,-0.2,-0.141421356,-0.141421356,2,1,,red,,,0,111,111,123,1,,,,,,,,,,,,
,,,999999999,2023-09-01_16h41.38.572,addsingdop,2022.2.5,MacIntel,120.0048002,,,,,right,1,0.5661,,,,,,2,2,red,8,-0.141421356,-0.141421356,4,0.141421356,0.141421356,0,0,0,0,0,0,90,0,right,2,2,2,0,2,2,2,0,-0.2,0,-0.141421356,0.141421356,0,0.2,0.141421356,0.141421356,0.2,0,0.141421356,-0.141421356,0,-0.2,-0.141421356,-0.141421356,2,1,,green,,,0,112,112,98,1,,,,,,,,,,,,
,,,999999999,2023-09-01_16h41.38.572,addsingdop,2022.2.5,MacIntel,120.0048002,,,,,down,1,0.9512,,,,,,2,FALSE,grey,1,-0.2,0,3,0,0.2,90,0,0,0,90,90,0,90,down,0,2,2,2,2,2,2,2,-0.2,0,-0.141421356,0.141421356,0,0.2,0.141421356,0.141421356,0.2,0,0.141421356,-0.141421356,0,-0.2,-0.141421356,-0.141421356,2,0,,red,,,0,113,113,136,1,,,,,,,,,,,,
,,,999999999,2023-09-01_16h41.38.572,addsingdop,2022.2.5,MacIntel,120.0048002,,,,,down,1,0.6621,,,,,,2,FALSE,grey,6,0.141421356,-0.141421356,3,0,0.2,90,0,90,0,90,90,0,0,down,2,2,2,2,2,0,2,2,-0.2,0,-0.141421356,0.141421356,0,0.2,0.141421356,0.141421356,0.2,0,0.141421356,-0.141421356,0,-0.2,-0.141421356,-0.141421356,2,1,,red,,,0,114,114,197,1,,,,,,,,,,,,
,,,999999999,2023-09-01_16h41.38.572,addsingdop,2022.2.5,MacIntel,120.0048002,,,,,right,0,0.6241,,,,,,2,2,red,2,-0.141421356,0.141421356,4,0.141421356,0.141421356,90,90,90,90,0,0,90,90,down,2,0,2,0,2,2,2,2,-0.2,0,-0.141421356,0.141421356,0,0.2,0.141421356,0.141421356,0.2,0,0.141421356,-0.141421356,0,-0.2,-0.141421356,-0.141421356,2,1,,green,,,0,115,115,28,1,,,,,,,,,,,,
,,,999999999,2023-09-01_16h41.38.572,addsingdop,2022.2.5,MacIntel,120.0048002,,,,,down,1,0.9819,,,,,,2,2,red,2,-0.141421356,0.141421356,4,0.141421356,0.141421356,0,90,0,90,90,0,0,90,down,2,0,2,0,2,2,2,2,-0.2,0,-0.141421356,0.141421356,0,0.2,0.141421356,0.141421356,0.2,0,0.141421356,-0.141421356,0,-0.2,-0.141421356,-0.141421356,2,0,,green,,,0,116,116,42,1,,,,,,,,,,,,
,,,999999999,2023-09-01_16h41.38.572,addsingdop,2022.2.5,MacIntel,120.0048002,,,,,down,1,0.657,,,,,,2,2,red,6,0.141421356,-0.141421356,4,0.141421356,0.141421356,90,90,90,0,0,90,0,90,down,2,2,2,0,2,0,2,2,-0.2,0,-0.141421356,0.141421356,0,0.2,0.141421356,0.141421356,0.2,0,0.141421356,-0.141421356,0,-0.2,-0.141421356,-0.141421356,2,1,,green,,,0,117,117,109,1,,,,,,,,,,,,
,,,999999999,2023-09-01_16h41.38.572,addsingdop,2022.2.5,MacIntel,120.0048002,,,,,right,1,0.9461,,,,,,2,FALSE,grey,6,0.141421356,-0.141421356,3,0,0.2,0,0,0,90,90,0,90,0,right,2,2,2,2,2,0,2,2,-0.2,0,-0.141421356,0.141421356,0,0.2,0.141421356,0.141421356,0.2,0,0.141421356,-0.141421356,0,-0.2,-0.141421356,-0.141421356,2,0,,red,,,0,118,118,181,1,,,,,,,,,,,,
,,,999999999,2023-09-01_16h41.38.572,addsingdop,2022.2.5,MacIntel,120.0048002,,,,,down,1,0.59,,,,,,2,FALSE,grey,3,0,0.2,3,0,0.2,0,0,90,0,0,0,0,0,down,2,2,0,2,2,2,2,2,-0.2,0,-0.141421356,0.141421356,0,0.2,0.141421356,0.141421356,0.2,0,0.141421356,-0.141421356,0,-0.2,-0.141421356,-0.141421356,2,1,,red,,,0,119,119,154,1,,,,,,,,,,,,
,,,999999999,2023-09-01_16h41.38.572,addsingdop,2022.2.5,MacIntel,120.0048002,,,,,right,1,0.4912,,,,,,2,2,red,5,0.2,0,4,0.141421356,0.141421356,90,0,0,90,0,0,0,0,right,2,2,2,0,0,2,2,2,-0.2,0,-0.141421356,0.141421356,0,0.2,0.141421356,0.141421356,0.2,0,0.141421356,-0.141421356,0,-0.2,-0.141421356,-0.141421356,2,1,,green,,,0,120,120,35,1,,,,,,,,,,,,
,,,999999999,2023-09-01_16h41.38.572,addsingdop,2022.2.5,MacIntel,120.0048002,,,,,right,1,0.5215,,,,,,2,FALSE,grey,5,0.2,0,3,0,0.2,0,0,0,0,0,0,90,90,right,2,2,2,2,0,2,2,2,-0.2,0,-0.141421356,0.141421356,0,0.2,0.141421356,0.141421356,0.2,0,0.141421356,-0.141421356,0,-0.2,-0.141421356,-0.141421356,2,1,,green,,,0,121,121,164,1,,,,,,,,,,,,
,,,999999999,2023-09-01_16h41.38.572,addsingdop,2022.2.5,MacIntel,120.0048002,,,,,down,1,0.7506,,,,,,2,2,red,6,0.141421356,-0.141421356,4,0.141421356,0.141421356,90,0,0,90,90,90,90,90,down,2,2,2,0,2,0,2,2,-0.2,0,-0.141421356,0.141421356,0,0.2,0.141421356,0.141421356,0.2,0,0.141421356,-0.141421356,0,-0.2,-0.141421356,-0.141421356,2,1,,green,,,0,122,122,117,1,,,,,,,,,,,,
,,,999999999,2023-09-01_16h41.38.572,addsingdop,2022.2.5,MacIntel,120.0048002,,,,,right,0,0.5488,,,,,,2,2,red,2,-0.141421356,0.141421356,4,0.141421356,0.141421356,90,90,90,90,90,0,0,0,down,2,0,2,0,2,2,2,2,-0.2,0,-0.141421356,0.141421356,0,0.2,0.141421356,0.141421356,0.2,0,0.141421356,-0.141421356,0,-0.2,-0.141421356,-0.141421356,2,1,,green,,,0,123,123,18,1,,,,,,,,,,,,
,,,999999999,2023-09-01_16h41.38.572,addsingdop,2022.2.5,MacIntel,120.0048002,,,,,right,1,0.7004,,,,,,2,FALSE,grey,2,-0.141421356,0.141421356,3,0,0.2,0,0,90,90,0,90,90,0,right,2,0,2,2,2,2,2,2,-0.2,0,-0.141421356,0.141421356,0,0.2,0.141421356,0.141421356,0.2,0,0.141421356,-0.141421356,0,-0.2,-0.141421356,-0.141421356,2,1,,green,,,0,124,124,193,1,,,,,,,,,,,,
,,,999999999,2023-09-01_16h41.38.572,addsingdop,2022.2.5,MacIntel,120.0048002,,,,,right,1,0.8823,,,,,,2,FALSE,grey,7,0,-0.2,3,0,0.2,90,90,90,0,0,90,0,0,right,2,2,2,2,2,2,0,2,-0.2,0,-0.141421356,0.141421356,0,0.2,0.141421356,0.141421356,0.2,0,0.141421356,-0.141421356,0,-0.2,-0.141421356,-0.141421356,2,0,,red,,,0,125,125,126,1,,,,,,,,,,,,
,,,999999999,2023-09-01_16h41.38.572,addsingdop,2022.2.5,MacIntel,120.0048002,,,,,right,1,0.7485,,,,,,2,FALSE,grey,8,-0.141421356,-0.141421356,3,0,0.2,0,90,0,0,90,90,90,0,right,2,2,2,2,2,2,2,0,-0.2,0,-0.141421356,0.141421356,0,0.2,0.141421356,0.141421356,0.2,0,0.141421356,-0.141421356,0,-0.2,-0.141421356,-0.141421356,2,1,,red,,,0,126,126,167,1,,,,,,,,,,,,
,,,999999999,2023-09-01_16h41.38.572,addsingdop,2022.2.5,MacIntel,120.0048002,,,,,down,1,0.6632,,,,,,2,FALSE,grey,6,0.141421356,-0.141421356,3,0,0.2,0,0,90,0,90,90,0,0,down,2,2,2,2,2,0,2,2,-0.2,0,-0.141421356,0.141421356,0,0.2,0.141421356,0.141421356,0.2,0,0.141421356,-0.141421356,0,-0.2,-0.141421356,-0.141421356,2,0,,red,,,0,127,127,149,1,,,,,,,,,,,,
,,,999999999,2023-09-01_16h41.38.572,addsingdop,2022.2.5,MacIntel,120.0048002,,,,,down,1,0.6144,,,,,,2,FALSE,grey,8,-0.141421356,-0.141421356,3,0,0.2,90,0,0,90,0,90,90,90,down,2,2,2,2,2,2,2,0,-0.2,0,-0.141421356,0.141421356,0,0.2,0.141421356,0.141421356,0.2,0,0.141421356,-0.141421356,0,-0.2,-0.141421356,-0.141421356,2,1,,red,,,0,128,128,159,1,,,,,,,,,,,,
,,,999999999,2023-09-01_16h41.38.572,addsingdop,2022.2.5,MacIntel,120.0048002,,,,,down,1,0.5766,,,,,,2,2,green,8,-0.141421356,-0.141421356,4,0.141421356,0.141421356,0,0,0,0,90,0,0,90,down,2,2,2,0,2,2,2,0,-0.2,0,-0.141421356,0.141421356,0,0.2,0.141421356,0.141421356,0.2,0,0.141421356,-0.141421356,0,-0.2,-0.141421356,-0.141421356,2,1,,red,,,0,129,129,81,1,,,,,,,,,,,,
,,,999999999,2023-09-01_16h41.38.572,addsingdop,2022.2.5,MacIntel,120.0048002,,,,,down,1,0.8404,,,,,,2,2,red,7,0,-0.2,4,0.141421356,0.141421356,90,90,90,90,90,90,90,90,down,2,2,2,0,2,2,0,2,-0.2,0,-0.141421356,0.141421356,0,0.2,0.141421356,0.141421356,0.2,0,0.141421356,-0.141421356,0,-0.2,-0.141421356,-0.141421356,2,0,,green,,,0,130,130,77,1,,,,,,,,,,,,
,,,999999999,2023-09-01_16h41.38.572,addsingdop,2022.2.5,MacIntel,120.0048002,,,,,down,1,0.6453,,,,,,2,2,green,5,0.2,0,4,0.141421356,0.141421356,0,90,90,0,90,0,0,90,down,2,2,2,0,0,2,2,2,-0.2,0,-0.141421356,0.141421356,0,0.2,0.141421356,0.141421356,0.2,0,0.141421356,-0.141421356,0,-0.2,-0.141421356,-0.141421356,2,1,,red,,,0,131,131,31,1,,,,,,,,,,,,
,,,999999999,2023-09-01_16h41.38.572,addsingdop,2022.2.5,MacIntel,120.0048002,,,,,right,1,0.7088,,,,,,2,FALSE,grey,6,0.141421356,-0.141421356,3,0,0.2,0,0,0,90,90,0,90,90,right,2,2,2,2,2,0,2,2,-0.2,0,-0.141421356,0.141421356,0,0.2,0.141421356,0.141421356,0.2,0,0.141421356,-0.141421356,0,-0.2,-0.141421356,-0.141421356,2,0,,green,,,0,132,132,141,1,,,,,,,,,,,,
,,,999999999,2023-09-01_16h41.38.572,addsingdop,2022.2.5,MacIntel,120.0048002,,,,,right,1,0.7624,,,,,,2,2,green,1,-0.2,0,4,0.141421356,0.141421356,0,0,90,0,90,90,0,90,right,0,2,2,0,2,2,2,2,-0.2,0,-0.141421356,0.141421356,0,0.2,0.141421356,0.141421356,0.2,0,0.141421356,-0.141421356,0,-0.2,-0.141421356,-0.141421356,2,1,,red,,,0,133,133,25,1,,,,,,,,,,,,
,,,999999999,2023-09-01_16h41.38.572,addsingdop,2022.2.5,MacIntel,120.0048002,,,,,down,1,0.6235,,,,,,2,2,green,8,-0.141421356,-0.141421356,4,0.141421356,0.141421356,90,0,90,90,0,90,0,90,down,2,2,2,0,2,2,2,0,-0.2,0,-0.141421356,0.141421356,0,0.2,0.141421356,0.141421356,0.2,0,0.141421356,-0.141421356,0,-0.2,-0.141421356,-0.141421356,2,0,,red,,,0,134,134,64,1,,,,,,,,,,,,
,,,999999999,2023-09-01_16h41.38.572,addsingdop,2022.2.5,MacIntel,120.0048002,,,,,right,1,0.561,,,,,,2,2,green,7,0,-0.2,4,0.141421356,0.141421356,0,90,0,0,0,0,0,0,right,2,2,2,0,2,2,0,2,-0.2,0,-0.141421356,0.141421356,0,0.2,0.141421356,0.141421356,0.2,0,0.141421356,-0.141421356,0,-0.2,-0.141421356,-0.141421356,2,1,,red,,,0,135,135,116,1,,,,,,,,,,,,
,,,999999999,2023-09-01_16h41.38.572,addsingdop,2022.2.5,MacIntel,120.0048002,,,,,right,1,0.9271,,,,,,2,2,red,5,0.2,0,4,0.141421356,0.141421356,0,0,0,90,0,0,90,90,right,2,2,2,0,0,2,2,2,-0.2,0,-0.141421356,0.141421356,0,0.2,0.141421356,0.141421356,0.2,0,0.141421356,-0.141421356,0,-0.2,-0.141421356,-0.141421356,2,0,,green,,,0,136,136,73,1,,,,,,,,,,,,
,,,999999999,2023-09-01_16h41.38.572,addsingdop,2022.2.5,MacIntel,120.0048002,,,,,down,1,0.6918,,,,,,2,2,red,7,0,-0.2,4,0.141421356,0.141421356,90,90,90,0,90,0,90,0,down,2,2,2,0,2,2,0,2,-0.2,0,-0.141421356,0.141421356,0,0.2,0.141421356,0.141421356,0.2,0,0.141421356,-0.141421356,0,-0.2,-0.141421356,-0.141421356,2,0,,green,,,0,137,137,6,1,,,,,,,,,,,,
,,,999999999,2023-09-01_16h41.38.572,addsingdop,2022.2.5,MacIntel,120.0048002,,,,,down,1,0.9827,,,,,,2,2,red,2,-0.141421356,0.141421356,4,0.141421356,0.141421356,90,90,0,90,90,0,90,0,down,2,0,2,0,2,2,2,2,-0.2,0,-0.141421356,0.141421356,0,0.2,0.141421356,0.141421356,0.2,0,0.141421356,-0.141421356,0,-0.2,-0.141421356,-0.141421356,2,0,,green,,,0,138,138,47,1,,,,,,,,,,,,
,,,999999999,2023-09-01_16h41.38.572,addsingdop,2022.2.5,MacIntel,120.0048002,,,,,right,1,0.5997,,,,,,2,FALSE,grey,2,-0.141421356,0.141421356,3,0,0.2,0,0,0,90,90,0,90,90,right,2,0,2,2,2,2,2,2,-0.2,0,-0.141421356,0.141421356,0,0.2,0.141421356,0.141421356,0.2,0,0.141421356,-0.141421356,0,-0.2,-0.141421356,-0.141421356,2,1,,red,,,0,139,139,137,1,,,,,,,,,,,,
,,,999999999,2023-09-01_16h41.38.572,addsingdop,2022.2.5,MacIntel,120.0048002,,,,,right,1,0.5952,,,,,,2,FALSE,grey,7,0,-0.2,3,0,0.2,0,90,0,0,90,90,0,90,right,2,2,2,2,2,2,0,2,-0.2,0,-0.141421356,0.141421356,0,0.2,0.141421356,0.141421356,0.2,0,0.141421356,-0.141421356,0,-0.2,-0.141421356,-0.141421356,2,1,,red,,,0,140,140,198,1,,,,,,,,,,,,
,,,999999999,2023-09-01_16h41.38.572,addsingdop,2022.2.5,MacIntel,120.0048002,,,,,down,1,1.0666,,,,,,2,FALSE,grey,6,0.141421356,-0.141421356,3,0,0.2,0,0,90,0,0,90,90,90,down,2,2,2,2,2,0,2,2,-0.2,0,-0.141421356,0.141421356,0,0.2,0.141421356,0.141421356,0.2,0,0.141421356,-0.141421356,0,-0.2,-0.141421356,-0.141421356,2,0,,red,,,0,141,141,165,1,,,,,,,,,,,,
,,,999999999,2023-09-01_16h41.38.572,addsingdop,2022.2.5,MacIntel,120.0048002,,,,,down,1,0.8714,,,,,,2,2,green,7,0,-0.2,4,0.141421356,0.141421356,0,90,0,0,0,90,90,0,down,2,2,2,0,2,2,0,2,-0.2,0,-0.141421356,0.141421356,0,0.2,0.141421356,0.141421356,0.2,0,0.141421356,-0.141421356,0,-0.2,-0.141421356,-0.141421356,2,0,,red,,,0,142,142,33,1,,,,,,,,,,,,
,,,999999999,2023-09-01_16h41.38.572,addsingdop,2022.2.5,MacIntel,120.0048002,,,,,down,0,0.8328,,,,,,2,2,green,6,0.141421356,-0.141421356,4,0.141421356,0.141421356,90,90,90,0,90,0,90,0,right,2,2,2,0,2,0,2,2,-0.2,0,-0.141421356,0.141421356,0,0.2,0.141421356,0.141421356,0.2,0,0.141421356,-0.141421356,0,-0.2,-0.141421356,-0.141421356,2,0,,red,,,0,143,143,24,1,,,,,,,,,,,,
,,,999999999,2023-09-01_16h41.38.572,addsingdop,2022.2.5,MacIntel,120.0048002,,,,,right,1,0.6082,,,,,,2,2,red,8,-0.141421356,-0.141421356,4,0.141421356,0.141421356,90,0,90,90,0,0,0,0,right,2,2,2,0,2,2,2,0,-0.2,0,-0.141421356,0.141421356,0,0.2,0.141421356,0.141421356,0.2,0,0.141421356,-0.141421356,0,-0.2,-0.141421356,-0.141421356,2,1,,green,,,0,144,144,8,1,,,,,,,,,,,,
,,,999999999,2023-09-01_16h41.38.572,addsingdop,2022.2.5,MacIntel,120.0048002,,,,,down,1,0.7089,,,,,,2,2,red,8,-0.141421356,-0.141421356,4,0.141421356,0.141421356,0,90,0,0,0,0,90,90,down,2,2,2,0,2,2,2,0,-0.2,0,-0.141421356,0.141421356,0,0.2,0.141421356,0.141421356,0.2,0,0.141421356,-0.141421356,0,-0.2,-0.141421356,-0.141421356,2,0,,green,,,0,145,145,36,1,,,,,,,,,,,,
,,,999999999,2023-09-01_16h41.38.572,addsingdop,2022.2.5,MacIntel,120.0048002,,,,,down,1,0.5712,,,,,,2,2,red,7,0,-0.2,4,0.141421356,0.141421356,0,0,0,0,90,90,90,90,down,2,2,2,0,2,2,0,2,-0.2,0,-0.141421356,0.141421356,0,0.2,0.141421356,0.141421356,0.2,0,0.141421356,-0.141421356,0,-0.2,-0.141421356,-0.141421356,2,0,,green,,,0,146,146,32,1,,,,,,,,,,,,
,,,999999999,2023-09-01_16h41.38.572,addsingdop,2022.2.5,MacIntel,120.0048002,,,,,down,1,0.5734,,,,,,2,2,green,1,-0.2,0,4,0.141421356,0.141421356,90,90,0,90,0,0,0,90,down,0,2,2,0,2,2,2,2,-0.2,0,-0.141421356,0.141421356,0,0.2,0.141421356,0.141421356,0.2,0,0.141421356,-0.141421356,0,-0.2,-0.141421356,-0.141421356,2,1,,red,,,0,147,147,55,1,,,,,,,,,,,,
,,,999999999,2023-09-01_16h41.38.572,addsingdop,2022.2.5,MacIntel,120.0048002,,,,,right,1,1.7292,,,,,,2,FALSE,grey,6,0.141421356,-0.141421356,3,0,0.2,0,0,0,90,90,0,90,90,right,2,2,2,2,2,0,2,2,-0.2,0,-0.141421356,0.141421356,0,0.2,0.141421356,0.141421356,0.2,0,0.141421356,-0.141421356,0,-0.2,-0.141421356,-0.141421356,2,0,,green,,,0,148,148,133,1,,,,,,,,,,,,
,,,999999999,2023-09-01_16h41.38.572,addsingdop,2022.2.5,MacIntel,120.0048002,,,,,right,1,0.578,,,,,,2,2,red,5,0.2,0,4,0.141421356,0.141421356,90,0,0,90,0,0,0,0,right,2,2,2,0,0,2,2,2,-0.2,0,-0.141421356,0.141421356,0,0.2,0.141421356,0.141421356,0.2,0,0.141421356,-0.141421356,0,-0.2,-0.141421356,-0.141421356,2,1,,green,,,0,149,149,87,1,,,,,,,,,,,,
,,,999999999,2023-09-01_16h41.38.572,addsingdop,2022.2.5,MacIntel,120.0048002,,,,,down,1,0.5458,,,,,,2,FALSE,grey,3,0,0.2,3,0,0.2,90,0,90,90,0,0,0,0,down,2,2,0,2,2,2,2,2,-0.2,0,-0.141421356,0.141421356,0,0.2,0.141421356,0.141421356,0.2,0,0.141421356,-0.141421356,0,-0.2,-0.141421356,-0.141421356,2,1,,green,,,0,150,150,122,1,,,,,,,,,,,,
,,,999999999,2023-09-01_16h41.38.572,addsingdop,2022.2.5,MacIntel,120.0048002,,,,,right,1,0.5661,,,,,,2,FALSE,grey,1,-0.2,0,3,0,0.2,0,0,0,0,0,90,0,90,right,0,2,2,2,2,2,2,2,-0.2,0,-0.141421356,0.141421356,0,0.2,0.141421356,0.141421356,0.2,0,0.141421356,-0.141421356,0,-0.2,-0.141421356,-0.141421356,2,0,,red,,,0,151,151,128,1,,,,,,,,,,,,
,,,999999999,2023-09-01_16h41.38.572,addsingdop,2022.2.5,MacIntel,120.0048002,,,,,down,1,0.5773,,,,,,2,2,green,7,0,-0.2,4,0.141421356,0.141421356,0,90,0,90,0,0,90,0,down,2,2,2,0,2,2,0,2,-0.2,0,-0.141421356,0.141421356,0,0.2,0.141421356,0.141421356,0.2,0,0.141421356,-0.141421356,0,-0.2,-0.141421356,-0.141421356,2,1,,red,,,0,152,152,15,1,,,,,,,,,,,,
,,,999999999,2023-09-01_16h41.38.572,addsingdop,2022.2.5,MacIntel,120.0048002,,,,,down,1,0.5375,,,,,,2,2,red,6,0.141421356,-0.141421356,4,0.141421356,0.141421356,0,0,0,90,90,90,0,0,down,2,2,2,0,2,0,2,2,-0.2,0,-0.141421356,0.141421356,0,0.2,0.141421356,0.141421356,0.2,0,0.141421356,-0.141421356,0,-0.2,-0.141421356,-0.141421356,2,1,,green,,,0,153,153,57,1,,,,,,,,,,,,
,,,999999999,2023-09-01_16h41.38.572,addsingdop,2022.2.5,MacIntel,120.0048002,,,,,down,1,0.5554,,,,,,2,2,green,1,-0.2,0,4,0.141421356,0.141421356,90,0,0,90,0,0,0,0,down,0,2,2,0,2,2,2,2,-0.2,0,-0.141421356,0.141421356,0,0.2,0.141421356,0.141421356,0.2,0,0.141421356,-0.141421356,0,-0.2,-0.141421356,-0.141421356,2,1,,red,,,0,154,154,118,1,,,,,,,,,,,,
,,,999999999,2023-09-01_16h41.38.572,addsingdop,2022.2.5,MacIntel,120.0048002,,,,,down,1,0.8986,,,,,,2,2,green,8,-0.141421356,-0.141421356,4,0.141421356,0.141421356,0,90,0,0,90,90,90,90,down,2,2,2,0,2,2,2,0,-0.2,0,-0.141421356,0.141421356,0,0.2,0.141421356,0.141421356,0.2,0,0.141421356,-0.141421356,0,-0.2,-0.141421356,-0.141421356,2,1,,red,,,0,155,155,114,1,,,,,,,,,,,,
,,,999999999,2023-09-01_16h41.38.572,addsingdop,2022.2.5,MacIntel,120.0048002,,,,,down,1,1.8218,,,,,,2,2,green,5,0.2,0,4,0.141421356,0.141421356,90,90,0,0,90,0,90,0,down,2,2,2,0,0,2,2,2,-0.2,0,-0.141421356,0.141421356,0,0.2,0.141421356,0.141421356,0.2,0,0.141421356,-0.141421356,0,-0.2,-0.141421356,-0.141421356,2,0,,red,,,0,156,156,49,1,,,,,,,,,,,,
,,,999999999,2023-09-01_16h41.38.572,addsingdop,2022.2.5,MacIntel,120.0048002,,,,,right,1,0.7012,,,,,,2,2,red,1,-0.2,0,4,0.141421356,0.141421356,0,90,90,0,0,90,0,90,right,0,2,2,0,2,2,2,2,-0.2,0,-0.141421356,0.141421356,0,0.2,0.141421356,0.141421356,0.2,0,0.141421356,-0.141421356,0,-0.2,-0.141421356,-0.141421356,2,1,,green,,,0,157,157,41,1,,,,,,,,,,,,
,,,999999999,2023-09-01_16h41.38.572,addsingdop,2022.2.5,MacIntel,120.0048002,,,,,right,1,0.6708,,,,,,2,2,green,2,-0.141421356,0.141421356,4,0.141421356,0.141421356,0,0,90,90,90,90,90,90,right,2,0,2,0,2,2,2,2,-0.2,0,-0.141421356,0.141421356,0,0.2,0.141421356,0.141421356,0.2,0,0.141421356,-0.141421356,0,-0.2,-0.141421356,-0.141421356,2,1,,red,,,0,158,158,82,1,,,,,,,,,,,,
,,,999999999,2023-09-01_16h41.38.572,addsingdop,2022.2.5,MacIntel,120.0048002,,,,,down,1,0.8414,,,,,,2,2,red,6,0.141421356,-0.141421356,4,0.141421356,0.141421356,90,0,0,0,90,90,0,90,down,2,2,2,0,2,0,2,2,-0.2,0,-0.141421356,0.141421356,0,0.2,0.141421356,0.141421356,0.2,0,0.141421356,-0.141421356,0,-0.2,-0.141421356,-0.141421356,2,0,,green,,,0,159,159,27,1,,,,,,,,,,,,
,,,999999999,2023-09-01_16h41.38.572,addsingdop,2022.2.5,MacIntel,120.0048002,,,,,right,1,0.5285,,,,,,2,2,red,1,-0.2,0,4,0.141421356,0.141421356,0,90,90,90,90,90,90,0,right,0,2,2,0,2,2,2,2,-0.2,0,-0.141421356,0.141421356,0,0.2,0.141421356,0.141421356,0.2,0,0.141421356,-0.141421356,0,-0.2,-0.141421356,-0.141421356,2,1,,green,,,0,160,160,108,1,,,,,,,,,,,,
,,,999999999,2023-09-01_16h41.38.572,addsingdop,2022.2.5,MacIntel,120.0048002,,,,,down,1,0.6093,,,,,,2,2,red,2,-0.141421356,0.141421356,4,0.141421356,0.141421356,90,90,0,90,0,90,90,90,down,2,0,2,0,2,2,2,2,-0.2,0,-0.141421356,0.141421356,0,0.2,0.141421356,0.141421356,0.2,0,0.141421356,-0.141421356,0,-0.2,-0.141421356,-0.141421356,2,1,,green,,,0,161,161,66,1,,,,,,,,,,,,
,,,999999999,2023-09-01_16h41.38.572,addsingdop,2022.2.5,MacIntel,120.0048002,,,,,down,1,1.2925,,,,,,2,2,green,3,0,0.2,4,0.141421356,0.141421356,0,0,90,90,90,90,90,90,down,2,2,0,0,2,2,2,2,-0.2,0,-0.141421356,0.141421356,0,0.2,0.141421356,0.141421356,0.2,0,0.141421356,-0.141421356,0,-0.2,-0.141421356,-0.141421356,2,0,,red,,,0,162,162,68,1,,,,,,,,,,,,
,,,999999999,2023-09-01_16h41.38.572,addsingdop,2022.2.5,MacIntel,120.0048002,,,,,down,1,0.4966,,,,,,2,FALSE,grey,3,0,0.2,3,0,0.2,90,90,90,0,0,0,90,0,down,2,2,0,2,2,2,2,2,-0.2,0,-0.141421356,0.141421356,0,0.2,0.141421356,0.141421356,0.2,0,0.141421356,-0.141421356,0,-0.2,-0.141421356,-0.141421356,2,1,,red,,,0,163,163,170,1,,,,,,,,,,,,
,,,999999999,2023-09-01_16h41.38.572,addsingdop,2022.2.5,MacIntel,120.0048002,,,,,down,1,0.5829,,,,,,2,FALSE,grey,4,0.141421356,0.141421356,3,0,0.2,0,0,0,90,0,0,0,90,down,2,2,2,0,2,2,2,2,-0.2,0,-0.141421356,0.141421356,0,0.2,0.141421356,0.141421356,0.2,0,0.141421356,-0.141421356,0,-0.2,-0.141421356,-0.141421356,2,0,,green,,,0,164,164,139,1,,,,,,,,,,,,
,,,999999999,2023-09-01_16h41.38.572,addsingdop,2022.2.5,MacIntel,120.0048002,,,,,right,1,0.7582,,,,,,2,FALSE,grey,2,-0.141421356,0.141421356,3,0,0.2,0,0,90,90,0,0,90,90,right,2,0,2,2,2,2,2,2,-0.2,0,-0.141421356,0.141421356,0,0.2,0.141421356,0.141421356,0.2,0,0.141421356,-0.141421356,0,-0.2,-0.141421356,-0.141421356,2,1,,red,,,0,165,165,169,1,,,,,,,,,,,,
,,,999999999,2023-09-01_16h41.38.572,addsingdop,2022.2.5,MacIntel,120.0048002,,,,,right,1,1.0073,,,,,,2,FALSE,grey,7,0,-0.2,3,0,0.2,0,90,0,0,90,0,0,90,right,2,2,2,2,2,2,0,2,-0.2,0,-0.141421356,0.141421356,0,0.2,0.141421356,0.141421356,0.2,0,0.141421356,-0.141421356,0,-0.2,-0.141421356,-0.141421356,2,0,,green,,,0,166,166,142,1,,,,,,,,,,,,
,,,999999999,2023-09-01_16h41.38.572,addsingdop,2022.2.5,MacIntel,120.0048002,,,,,right,1,0.4892,,,,,,2,FALSE,grey,3,0,0.2,3,0,0.2,90,90,0,90,90,0,0,90,right,2,2,0,2,2,2,2,2,-0.2,0,-0.141421356,0.141421356,0,0.2,0.141421356,0.141421356,0.2,0,0.141421356,-0.141421356,0,-0.2,-0.141421356,-0.141421356,2,1,,red,,,0,167,167,186,1,,,,,,,,,,,,
,,,999999999,2023-09-01_16h41.38.572,addsingdop,2022.2.5,MacIntel,120.0048002,,,,,right,1,0.4427,,,,,,2,FALSE,grey,3,0,0.2,3,0,0.2,0,90,0,0,90,90,90,90,right,2,2,0,2,2,2,2,2,-0.2,0,-0.141421356,0.141421356,0,0.2,0.141421356,0.141421356,0.2,0,0.141421356,-0.141421356,0,-0.2,-0.141421356,-0.141421356,2,1,,red,,,0,168,168,146,1,,,,,,,,,,,,
,,,999999999,2023-09-01_16h41.38.572,addsingdop,2022.2.5,MacIntel,120.0048002,,,,,right,1,0.7673,,,,,,2,2,red,1,-0.2,0,4,0.141421356,0.141421356,0,90,0,0,0,90,90,90,right,0,2,2,0,2,2,2,2,-0.2,0,-0.141421356,0.141421356,0,0.2,0.141421356,0.141421356,0.2,0,0.141421356,-0.141421356,0,-0.2,-0.141421356,-0.141421356,2,0,,green,,,0,169,169,71,1,,,,,,,,,,,,
,,,999999999,2023-09-01_16h41.38.572,addsingdop,2022.2.5,MacIntel,120.0048002,,,,,right,1,0.7714,,,,,,2,2,green,2,-0.141421356,0.141421356,4,0.141421356,0.141421356,90,0,90,0,90,0,90,0,right,2,0,2,0,2,2,2,2,-0.2,0,-0.141421356,0.141421356,0,0.2,0.141421356,0.141421356,0.2,0,0.141421356,-0.141421356,0,-0.2,-0.141421356,-0.141421356,2,0,,red,,,0,170,170,13,1,,,,,,,,,,,,
,,,999999999,2023-09-01_16h41.38.572,addsingdop,2022.2.5,MacIntel,120.0048002,,,,,down,1,0.6873,,,,,,2,2,green,8,-0.141421356,-0.141421356,4,0.141421356,0.141421356,0,0,90,90,0,0,90,90,down,2,2,2,0,2,2,2,0,-0.2,0,-0.141421356,0.141421356,0,0.2,0.141421356,0.141421356,0.2,0,0.141421356,-0.141421356,0,-0.2,-0.141421356,-0.141421356,2,1,,red,,,0,171,171,29,1,,,,,,,,,,,,
,,,999999999,2023-09-01_16h41.38.572,addsingdop,2022.2.5,MacIntel,120.0048002,,,,,right,1,1.1142,,,,,,2,FALSE,grey,7,0,-0.2,3,0,0.2,90,90,90,90,0,90,0,0,right,2,2,2,2,2,2,0,2,-0.2,0,-0.141421356,0.141421356,0,0.2,0.141421356,0.141421356,0.2,0,0.141421356,-0.141421356,0,-0.2,-0.141421356,-0.141421356,2,0,,red,,,0,172,172,174,1,,,,,,,,,,,,
,,,999999999,2023-09-01_16h41.38.572,addsingdop,2022.2.5,MacIntel,120.0048002,,,,,right,0,0.5793,,,,,,2,FALSE,grey,7,0,-0.2,3,0,0.2,90,0,90,0,90,90,90,90,down,2,2,2,2,2,2,0,2,-0.2,0,-0.141421356,0.141421356,0,0.2,0.141421356,0.141421356,0.2,0,0.141421356,-0.141421356,0,-0.2,-0.141421356,-0.141421356,2,1,,green,,,0,173,173,134,1,,,,,,,,,,,,
,,,999999999,2023-09-01_16h41.38.572,addsingdop,2022.2.5,MacIntel,120.0048002,,,,,right,1,0.8343,,,,,,2,2,green,6,0.141421356,-0.141421356,4,0.141421356,0.141421356,0,0,90,90,90,0,90,90,right,2,2,2,0,2,0,2,2,-0.2,0,-0.141421356,0.141421356,0,0.2,0.141421356,0.141421356,0.2,0,0.141421356,-0.141421356,0,-0.2,-0.141421356,-0.141421356,2,0,,red,,,0,174,174,99,1,,,,,,,,,,,,
,,,999999999,2023-09-01_16h41.38.572,addsingdop,2022.2.5,MacIntel,120.0048002,,,,,right,1,0.6264,,,,,,2,2,green,2,-0.141421356,0.141421356,4,0.141421356,0.141421356,0,0,0,0,0,90,90,90,right,2,0,2,0,2,2,2,2,-0.2,0,-0.141421356,0.141421356,0,0.2,0.141421356,0.141421356,0.2,0,0.141421356,-0.141421356,0,-0.2,-0.141421356,-0.141421356,2,0,,red,,,0,175,175,20,1,,,,,,,,,,,,
,,,999999999,2023-09-01_16h41.38.572,addsingdop,2022.2.5,MacIntel,120.0048002,,,,,right,1,1.2063,,,,,,2,FALSE,grey,1,-0.2,0,3,0,0.2,0,90,90,90,90,90,0,0,right,0,2,2,2,2,2,2,2,-0.2,0,-0.141421356,0.141421356,0,0.2,0.141421356,0.141421356,0.2,0,0.141421356,-0.141421356,0,-0.2,-0.141421356,-0.141421356,2,1,,red,,,0,176,176,168,1,,,,,,,,,,,,
,,,999999999,2023-09-01_16h41.38.572,addsingdop,2022.2.5,MacIntel,120.0048002,,,,,down,1,0.6658,,,,,,2,2,red,3,0,0.2,4,0.141421356,0.141421356,0,0,90,0,90,90,0,0,down,2,2,0,0,2,2,2,2,-0.2,0,-0.141421356,0.141421356,0,0.2,0.141421356,0.141421356,0.2,0,0.141421356,-0.141421356,0,-0.2,-0.141421356,-0.141421356,2,1,,green,,,0,177,177,30,1,,,,,,,,,,,,
,,,999999999,2023-09-01_16h41.38.572,addsingdop,2022.2.5,MacIntel,120.0048002,,,,,right,1,0.603,,,,,,2,2,red,8,-0.141421356,-0.141421356,4,0.141421356,0.141421356,90,90,90,0,90,90,90,0,right,2,2,2,0,2,2,2,0,-0.2,0,-0.141421356,0.141421356,0,0.2,0.141421356,0.141421356,0.2,0,0.141421356,-0.141421356,0,-0.2,-0.141421356,-0.141421356,2,1,,green,,,0,178,178,105,1,,,,,,,,,,,,
,,,999999999,2023-09-01_16h41.38.572,addsingdop,2022.2.5,MacIntel,120.0048002,,,,,right,1,1.0122,,,,,,2,2,green,6,0.141421356,-0.141421356,4,0.141421356,0.141421356,0,0,0,90,90,0,90,0,right,2,2,2,0,2,0,2,2,-0.2,0,-0.141421356,0.141421356,0,0.2,0.141421356,0.141421356,0.2,0,0.141421356,-0.141421356,0,-0.2,-0.141421356,-0.141421356,2,0,,red,,,0,179,179,16,1,,,,,,,,,,,,
,,,999999999,2023-09-01_16h41.38.572,addsingdop,2022.2.5,MacIntel,120.0048002,,,,,right,1,0.571,,,,,,2,FALSE,grey,4,0.141421356,0.141421356,3,0,0.2,90,0,90,0,0,0,0,0,right,2,2,2,0,2,2,2,2,-0.2,0,-0.141421356,0.141421356,0,0.2,0.141421356,0.141421356,0.2,0,0.141421356,-0.141421356,0,-0.2,-0.141421356,-0.141421356,2,0,,red,,,0,180,180,147,1,,,,,,,,,,,,
,,,999999999,2023-09-01_16h41.38.572,addsingdop,2022.2.5,MacIntel,120.0048002,,,,,down,1,0.5717,,,,,,2,FALSE,grey,3,0,0.2,3,0,0.2,0,0,90,90,90,90,90,90,down,2,2,0,2,2,2,2,2,-0.2,0,-0.141421356,0.141421356,0,0.2,0.141421356,0.141421356,0.2,0,0.141421356,-0.141421356,0,-0.2,-0.141421356,-0.141421356,2,1,,green,,,0,181,181,138,1,,,,,,,,,,,,
,,,999999999,2023-09-01_16h41.38.572,addsingdop,2022.2.5,MacIntel,120.0048002,,,,,down,1,0.62,,,,,,2,2,green,1,-0.2,0,4,0.141421356,0.141421356,90,90,90,90,90,0,90,0,down,0,2,2,0,2,2,2,2,-0.2,0,-0.141421356,0.141421356,0,0.2,0.141421356,0.141421356,0.2,0,0.141421356,-0.141421356,0,-0.2,-0.141421356,-0.141421356,2,1,,red,,,0,182,182,106,1,,,,,,,,,,,,
,,,999999999,2023-09-01_16h41.38.572,addsingdop,2022.2.5,MacIntel,120.0048002,,,,,down,1,0.6575,,,,,,2,2,red,2,-0.141421356,0.141421356,4,0.141421356,0.141421356,90,90,0,0,90,90,90,0,down,2,0,2,0,2,2,2,2,-0.2,0,-0.141421356,0.141421356,0,0.2,0.141421356,0.141421356,0.2,0,0.141421356,-0.141421356,0,-0.2,-0.141421356,-0.141421356,2,1,,green,,,0,183,183,65,1,,,,,,,,,,,,
,,,999999999,2023-09-01_16h41.38.572,addsingdop,2022.2.5,MacIntel,120.0048002,,,,,down,1,2.0423,,,,,,2,2,red,5,0.2,0,4,0.141421356,0.141421356,0,90,0,0,90,90,0,90,down,2,2,2,0,0,2,2,2,-0.2,0,-0.141421356,0.141421356,0,0.2,0.141421356,0.141421356,0.2,0,0.141421356,-0.141421356,0,-0.2,-0.141421356,-0.141421356,2,0,,green,,,0,184,184,103,1,,,,,,,,,,,,
,,,999999999,2023-09-01_16h41.38.572,addsingdop,2022.2.5,MacIntel,120.0048002,,,,,down,1,0.6165,,,,,,2,2,red,8,-0.141421356,-0.141421356,4,0.141421356,0.141421356,0,0,0,0,0,90,90,90,down,2,2,2,0,2,2,2,0,-0.2,0,-0.141421356,0.141421356,0,0.2,0.141421356,0.141421356,0.2,0,0.141421356,-0.141421356,0,-0.2,-0.141421356,-0.141421356,2,1,,green,,,0,185,185,115,1,,,,,,,,,,,,
,,,999999999,2023-09-01_16h41.38.572,addsingdop,2022.2.5,MacIntel,120.0048002,,,,,down,1,0.5637,,,,,,2,2,green,3,0,0.2,4,0.141421356,0.141421356,0,0,90,0,0,90,90,0,down,2,2,0,0,2,2,2,2,-0.2,0,-0.141421356,0.141421356,0,0.2,0.141421356,0.141421356,0.2,0,0.141421356,-0.141421356,0,-0.2,-0.141421356,-0.141421356,2,0,,red,,,0,186,186,84,1,,,,,,,,,,,,
,,,999999999,2023-09-01_16h41.38.572,addsingdop,2022.2.5,MacIntel,120.0048002,,,,,down,1,0.5526,,,,,,2,2,red,1,-0.2,0,4,0.141421356,0.141421356,90,90,90,90,90,0,90,0,down,0,2,2,0,2,2,2,2,-0.2,0,-0.141421356,0.141421356,0,0.2,0.141421356,0.141421356,0.2,0,0.141421356,-0.141421356,0,-0.2,-0.141421356,-0.141421356,2,0,,green,,,0,187,187,113,1,,,,,,,,,,,,
,,,999999999,2023-09-01_16h41.38.572,addsingdop,2022.2.5,MacIntel,120.0048002,,,,,down,1,0.5958,,,,,,2,FALSE,grey,4,0.141421356,0.141421356,3,0,0.2,90,0,0,90,90,90,90,0,down,2,2,2,0,2,2,2,2,-0.2,0,-0.141421356,0.141421356,0,0.2,0.141421356,0.141421356,0.2,0,0.141421356,-0.141421356,0,-0.2,-0.141421356,-0.141421356,2,0,,red,,,0,188,188,195,1,,,,,,,,,,,,
,,,999999999,2023-09-01_16h41.38.572,addsingdop,2022.2.5,MacIntel,120.0048002,,,,,right,1,0.7093,,,,,,2,FALSE,grey,7,0,-0.2,3,0,0.2,0,90,90,90,90,0,0,90,right,2,2,2,2,2,2,0,2,-0.2,0,-0.141421356,0.141421356,0,0.2,0.141421356,0.141421356,0.2,0,0.141421356,-0.141421356,0,-0.2,-0.141421356,-0.141421356,2,0,,red,,,0,189,189,182,1,,,,,,,,,,,,
,,,999999999,2023-09-01_16h41.38.572,addsingdop,2022.2.5,MacIntel,120.0048002,,,,,right,1,1.153,,,,,,2,2,red,7,0,-0.2,4,0.141421356,0.141421356,90,90,0,90,0,0,0,0,right,2,2,2,0,2,2,0,2,-0.2,0,-0.141421356,0.141421356,0,0.2,0.141421356,0.141421356,0.2,0,0.141421356,-0.141421356,0,-0.2,-0.141421356,-0.141421356,2,0,,green,,,0,190,190,14,1,,,,,,,,,,,,
,,,999999999,2023-09-01_16h41.38.572,addsingdop,2022.2.5,MacIntel,120.0048002,,,,,right,1,0.577,,,,,,2,2,green,2,-0.141421356,0.141421356,4,0.141421356,0.141421356,90,0,90,90,0,0,90,90,right,2,0,2,0,2,2,2,2,-0.2,0,-0.141421356,0.141421356,0,0.2,0.141421356,0.141421356,0.2,0,0.141421356,-0.141421356,0,-0.2,-0.141421356,-0.141421356,2,0,,red,,,0,191,191,26,1,,,,,,,,,,,,
,,,999999999,2023-09-01_16h41.38.572,addsingdop,2022.2.5,MacIntel,120.0048002,,,,,down,1,0.5718,,,,,,2,2,green,8,-0.141421356,-0.141421356,4,0.141421356,0.141421356,90,0,90,0,0,0,0,90,down,2,2,2,0,2,2,2,0,-0.2,0,-0.141421356,0.141421356,0,0.2,0.141421356,0.141421356,0.2,0,0.141421356,-0.141421356,0,-0.2,-0.141421356,-0.141421356,2,1,,red,,,0,192,192,45,1,,,,,,,,,,,,
,,,999999999,2023-09-01_16h41.38.572,addsingdop,2022.2.5,MacIntel,120.0048002,,,,,right,1,0.5559,,,,,,2,FALSE,grey,5,0.2,0,3,0,0.2,0,0,90,90,0,0,0,0,right,2,2,2,2,0,2,2,2,-0.2,0,-0.141421356,0.141421356,0,0.2,0.141421356,0.141421356,0.2,0,0.141421356,-0.141421356,0,-0.2,-0.141421356,-0.141421356,2,1,,red,,,0,193,193,180,1,,,,,,,,,,,,
,,,999999999,2023-09-01_16h41.38.572,addsingdop,2022.2.5,MacIntel,120.0048002,,,,,down,1,0.6042,,,,,,2,2,red,7,0,-0.2,4,0.141421356,0.141421356,0,90,90,0,0,90,90,0,down,2,2,2,0,2,2,0,2,-0.2,0,-0.141421356,0.141421356,0,0.2,0.141421356,0.141421356,0.2,0,0.141421356,-0.141421356,0,-0.2,-0.141421356,-0.141421356,2,0,,green,,,0,194,194,94,1,,,,,,,,,,,,
,,,999999999,2023-09-01_16h41.38.572,addsingdop,2022.2.5,MacIntel,120.0048002,,,,,right,1,0.5062,,,,,,2,2,red,3,0,0.2,4,0.141421356,0.141421356,90,90,0,0,90,0,90,0,right,2,2,0,0,2,2,2,2,-0.2,0,-0.141421356,0.141421356,0,0.2,0.141421356,0.141421356,0.2,0,0.141421356,-0.141421356,0,-0.2,-0.141421356,-0.141421356,2,1,,green,,,0,195,195,96,1,,,,,,,,,,,,
,,,999999999,2023-09-01_16h41.38.572,addsingdop,2022.2.5,MacIntel,120.0048002,,,,,right,1,0.5373,,,,,,2,2,red,6,0.141421356,-0.141421356,4,0.141421356,0.141421356,90,0,90,0,0,0,90,90,right,2,2,2,0,2,0,2,2,-0.2,0,-0.141421356,0.141421356,0,0.2,0.141421356,0.141421356,0.2,0,0.141421356,-0.141421356,0,-0.2,-0.141421356,-0.141421356,2,1,,green,,,0,196,196,51,1,,,,,,,,,,,,
,,,999999999,2023-09-01_16h41.38.572,addsingdop,2022.2.5,MacIntel,120.0048002,,,,,right,1,0.5036,,,,,,2,2,green,2,-0.141421356,0.141421356,4,0.141421356,0.141421356,0,0,90,90,90,90,90,90,right,2,0,2,0,2,2,2,2,-0.2,0,-0.141421356,0.141421356,0,0.2,0.141421356,0.141421356,0.2,0,0.141421356,-0.141421356,0,-0.2,-0.141421356,-0.141421356,2,1,,red,,,0,197,197,40,1,,,,,,,,,,,,
,,,999999999,2023-09-01_16h41.38.572,addsingdop,2022.2.5,MacIntel,120.0048002,,,,,down,1,0.5989,,,,,,2,FALSE,grey,1,-0.2,0,3,0,0.2,90,90,90,0,0,0,0,90,down,0,2,2,2,2,2,2,2,-0.2,0,-0.141421356,0.141421356,0,0.2,0.141421356,0.141421356,0.2,0,0.141421356,-0.141421356,0,-0.2,-0.141421356,-0.141421356,2,1,,green,,,0,198,198,192,1,,,,,,,,,,,,
,,,999999999,2023-09-01_16h41.38.572,addsingdop,2022.2.5,MacIntel,120.0048002,,,,,down,1,0.7297,,,,,,2,2,green,1,-0.2,0,4,0.141421356,0.141421356,90,0,0,0,0,90,90,90,down,0,2,2,0,2,2,2,2,-0.2,0,-0.141421356,0.141421356,0,0.2,0.141421356,0.141421356,0.2,0,0.141421356,-0.141421356,0,-0.2,-0.141421356,-0.141421356,2,1,,red,,,0,199,199,1,1,,,,,,,,,,,,
,,,999999999,2023-09-01_16h41.38.572,addsingdop,2022.2.5,MacIntel,120.0048002,,,,,,,,,,,,,,,,,,,,,,,,,,,,,,,,,,,,,,,,,,,,,,,,,,,,,,,,,,,,,,,,,,space,3.776,0,0,0,0,1,,,,,
,,,999999999,2023-09-01_16h41.38.572,addsingdop,2022.2.5,MacIntel,120.0048002,,,,,,,,,,,,,,,,,,,,,,,,,,,,,,,,,,,,,,,,,,,,,,,,,,,,,,,,,,,,,,,,,,,,,,,,,0,0,0,0,1
,,,999999999,2023-09-01_16h41.38.572,addsingdop,2022.2.5,MacIntel,120.0048002,,,,,,,,,,,,,,,,,,,,,,,,,,,,,,,,,,,,,,,,,,,,,,,,,,,,,,,,,,,,,,,,,,,,,,,,,,,,,